TimeStamp,ax,ay,az,gx,gy,gz,mx,my,mz
347008.7776,183.488,-395.89,920.856,-848.75,4086.25,1076.25,63.84,4.56,-358.72
347008.8276,162.199,-404.979,919.148,-1032.5,4987.5,376.25,47.12,-9.12,-364.8
347008.8776,176.717,-400.282,912.621,1881.25,3578.75,-1995.0,60.8,-10.64,-346.56
347008.9276,165.188,-373.503,904.142,2651.25,6230.0,-5556.25,68.4,-15.2,-355.68
347008.9776,152.378,-388.326,941.779,-3412.5,1373.75,-2143.75,56.24,-6.08,-363.28
347009.0276,157.197,-411.262,892.003,4130.0,6921.25,-9362.5,48.64,-7.6,-355.68
347009.0776,130.845,-343.064,945.256,4235.0,4602.5,-11952.5,34.96,-7.6,-354.16
347009.1276,181.963,-378.566,916.281,1198.75,4847.5,-7708.75,47.12,-9.12,-361.76
347009.1776,134.871,-413.946,935.252,-5573.75,656.25,-4340.0,65.36,-9.12,-360.24
347009.2276,242.719,-390.583,904.264,5328.75,393.75,-5328.75,50.16,-9.12,-348.08
347009.2776,202.459,-395.28,878.583,507.5,11138.75,-8706.25,44.08,-25.84,-345.04
347009.3276,127.612,-335.805,934.642,227.5,13002.5,-17675.0,38.0,-16.72,-366.32
347009.3776,196.908,-414.129,914.939,6116.25,-822.5,-4637.5,42.56,-16.72,-375.44
347009.4276,176.168,-312.198,948.062,533.75,1942.5,-2161.25,50.16,-22.8,-352.64
347009.4776,182.146,-425.963,917.013,3115.0,1155.0,2983.75,53.2,-22.8,-349.6
347009.5276,182.878,-340.014,950.563,-4891.25,2852.5,3185.0,57.76,-25.84,-342.0
347009.5776,184.83,-434.564,916.525,-11401.25,5635.0,5950.0,56.24,-25.84,-351.12
347009.6276,117.791,-403.027,918.782,7910.0,-2371.25,5503.75,44.08,-7.6,-355.68
347009.6776,161.101,-349.164,925.065,2117.5,-5670.0,4287.5,51.68,-10.64,-363.28
347009.7276,207.156,-400.16,907.436,-507.5,-1128.75,5355.0,51.68,-22.8,-358.72
347009.7776,190.198,-373.137,912.011,-796.25,3027.5,-735.0,51.68,-15.2,-349.6
347009.8276,195.566,-399.245,922.076,350.0,3596.25,-953.75,44.08,-21.28,-351.12
347009.8776,168.787,-393.877,928.359,1496.25,2843.75,385.0,47.12,-7.6,-369.36
347009.9276,183.122,-376.187,932.141,1575.0,1198.75,901.25,54.72,-24.32,-370.88
347009.9776,196.176,-395.036,918.538,761.25,2668.75,-805.0,45.6,-13.68,-349.6
347010.0276,185.745,-357.643,909.571,-1688.75,4882.5,-2161.25,47.12,-13.68,-352.64
347010.0776,173.24,-393.999,921.405,-411.25,4576.25,-1461.25,54.72,-21.28,-355.68
347010.1276,176.9,-382.531,911.767,-3097.5,3736.25,-1295.0,47.12,-18.24,-360.24
347010.1776,198.494,-402.478,914.268,568.75,4777.5,1828.75,50.16,-4.56,-354.16
347010.2276,174.826,-420.778,930.067,3036.25,6125.0,-341.25,53.2,-13.68,-367.84
347010.2776,151.524,-337.086,923.357,1058.75,7183.75,1627.5,62.32,-10.64,-361.76
347010.3276,143.777,-387.899,932.141,-262.5,3692.5,341.25,59.28,-16.72,-354.16
347010.3776,167.689,-379.115,922.503,8.75,3438.75,971.25,54.72,-7.6,-354.16
347010.4276,163.663,-376.187,929.396,-481.25,2345.0,840.0,59.28,-9.12,-357.2
347010.4776,171.166,-389.18,928.481,1723.75,1697.5,-280.0,59.28,-19.76,-363.28
347010.5276,174.46,-365.634,930.86,-1942.5,2948.75,1443.75,50.16,-15.2,-363.28
347010.5776,177.693,-371.429,921.466,78.75,2388.75,-227.5,63.84,-13.68,-354.16
347010.6276,162.321,-385.581,924.15,533.75,3045.0,175.0,59.28,-9.12,-342.0
347010.6777,171.715,-359.046,918.111,-2266.25,4733.75,3902.5,60.8,-12.16,-360.24
347010.7276,140.3,-363.926,928.359,1723.75,1863.75,2668.75,54.72,-21.28,-364.8
347010.7776,167.811,-410.408,919.27,-3552.5,901.25,-1155.0,56.24,-9.12,-346.56
347010.8276,178.852,-382.287,924.882,761.25,1303.75,-2170.0,65.36,-6.08,-361.76
347010.8776,167.323,-381.799,928.359,1566.25,2721.25,-1470.0,60.8,-21.28,-349.6
347010.9276,165.737,-387.777,915.976,-1706.25,3202.5,1618.75,65.36,-16.72,-355.68
347010.9776,165.249,-362.523,925.248,665.0,1828.75,-770.0,59.28,-13.68,-349.6
347011.0276,163.48,-386.801,925.614,-892.5,2030.0,-1128.75,48.64,-25.84,-348.08
347011.0776,169.031,-371.795,921.527,-3158.75,1680.0,945.0,60.8,-18.24,-364.8
347011.1276,173.423,-390.888,922.198,-621.25,2073.75,-218.75,60.8,-12.16,-363.28
347011.1776,171.654,-396.561,923.418,-175.0,2318.75,-1680.0,51.68,-25.84,-345.04
347011.2276,172.203,-378.505,918.538,-376.25,2003.75,-4602.5,51.68,-15.2,-361.76
347011.2776,187.087,-366.366,926.651,-2178.75,3605.0,-4646.25,68.4,-9.12,-346.56
347011.3276,175.314,-407.968,921.588,-656.25,4620.0,638.75,59.28,-6.08,-366.32
347011.3776,163.053,-390.705,924.943,-420.0,2765.0,-735.0,54.72,-10.64,-354.16
347011.4276,168.055,-396.5,923.357,1172.5,2625.0,-428.75,62.32,-21.28,-354.16
347011.4776,169.763,-387.716,916.647,-1120.0,3010.0,980.0,59.28,-18.24,-348.08
347011.5276,171.837,-387.777,922.625,1120.0,2581.25,-918.75,48.64,-13.68,-358.72
347011.5776,171.898,-394.06,914.695,70.0,3150.0,26.25,53.2,-24.32,-354.16
347011.6276,166.042,-372.71,920.307,-2030.0,2782.5,-656.25,50.16,-19.76,-366.32
347011.6776,176.351,-408.212,923.296,-376.25,2275.0,-1925.0,57.76,-15.2,-354.16
347011.7276,159.21,-392.596,925.248,840.0,3745.0,-472.5,68.4,-9.12,-342.0
347011.7776,166.164,-374.479,929.03,682.5,2476.25,-1715.0,60.8,1.52,-355.68
347011.8276,168.116,-398.574,915.976,-595.0,2756.25,-813.75,39.52,-7.6,-345.04
347011.8776,162.26,-391.315,921.954,1023.75,2686.25,743.75,57.76,-12.16,-357.2
347011.9276,167.201,-395.036,918.477,-481.25,1688.75,743.75,59.28,-16.72,-364.8
347011.9776,179.34,-394.06,917.928,-297.5,2782.5,-918.75,45.6,-7.6,-345.04
347012.0276,175.741,-383.751,920.551,-140.0,3395.0,-665.0,60.8,-19.76,-352.64
347012.0776,165.92,-392.291,924.028,-743.75,3018.75,-17.5,54.72,-21.28,-351.12
347012.1276,170.434,-399.55,920.612,568.75,2808.75,-892.5,47.12,-7.6,-360.24
347012.1776,166.286,-388.57,918.782,-323.75,3010.0,-805.0,50.16,-12.16,-364.8
347012.2276,163.663,-382.104,921.466,962.5,2616.25,192.5,48.64,-7.6,-338.96
347012.2776,169.763,-387.35,916.159,-262.5,2143.75,446.25,60.8,-13.68,-349.6
347012.3276,173.606,-391.132,921.283,-831.25,2686.25,-253.75,54.72,0.0,-358.72
347012.3776,181.902,-400.404,917.318,-210.0,4016.25,-455.0,60.8,-4.56,-355.68
347012.4276,164.761,-397.293,920.551,148.75,3885.0,-1487.5,38.0,-19.76,-357.2
347012.4776,162.931,-387.716,918.904,78.75,3158.75,-2371.25,45.6,-16.72,-340.48
347012.5276,162.748,-394.67,919.026,411.25,3010.0,-1478.75,63.84,-15.2,-358.72
347012.5776,166.896,-376.431,923.784,-262.5,3158.75,-1303.75,54.72,-4.56,-340.48
347012.6277,167.506,-397.659,920.612,-2100.0,2695.0,297.5,39.52,-12.16,-355.68
347012.6776,164.944,-382.775,926.285,700.0,3115.0,455.0,54.72,-19.76,-357.2
347012.7276,170.617,-407.907,917.623,-245.0,2852.5,525.0,50.16,-10.64,-352.64
347012.7776,172.935,-391.681,915.0,288.75,3675.0,253.75,53.2,-4.56,-360.24
347012.8276,163.053,-390.949,922.259,682.5,2747.5,-1172.5,65.36,4.56,-351.12
347012.8776,165.493,-386.069,922.869,-218.75,2336.25,-1373.75,54.72,-3.04,-346.56
347012.9276,172.874,-400.404,918.172,-183.75,3211.25,-805.0,60.8,-21.28,-358.72
347012.9776,164.761,-390.156,919.392,-735.0,3228.75,-778.75,53.2,-6.08,-370.88
347013.0276,169.58,-405.345,918.477,1207.5,3605.0,-2992.5,68.4,-6.08,-352.64
347013.0776,169.397,-399.306,920.185,1286.25,4418.75,-2502.5,71.44,-18.24,-351.12
347013.1276,165.249,-383.446,925.431,1820.0,4217.5,-2266.25,50.16,-15.2,-358.72
347013.1776,160.186,-388.631,919.27,-1137.5,3508.75,-516.25,41.04,7.6,-355.68
347013.2276,161.589,-393.694,925.492,-332.5,2703.75,-568.75,51.68,-16.72,-349.6
347013.2776,160.796,-395.158,921.771,122.5,2441.25,-1032.5,59.28,-10.64,-361.76
347013.3276,175.314,-387.045,922.991,883.75,2458.75,-192.5,51.68,-9.12,-352.64
347013.3776,181.414,-394.548,922.198,-140.0,6816.25,-1933.75,51.68,-4.56,-349.6
347013.4276,155.855,-380.518,924.516,-490.0,4112.5,-1513.75,42.56,-13.68,-348.08
347013.4776,152.805,-399.794,917.562,-192.5,3465.0,-1242.5,54.72,-10.64,-363.28
347013.5276,163.053,-390.4,919.941,-227.5,2353.75,131.25,56.24,-16.72,-360.24
347013.5776,159.698,-381.433,922.259,-218.75,2213.75,227.5,63.84,-16.72,-340.48
347013.6276,162.748,-391.193,921.771,-927.5,2327.5,-253.75,54.72,-9.12,-349.6
347013.6776,162.931,-390.522,919.453,-210.0,1627.5,630.0,54.72,-24.32,-354.16
347013.7276,170.312,-402.356,919.697,43.75,2345.0,-463.75,56.24,-3.04,-355.68
347013.7776,168.299,-383.202,923.479,892.5,2957.5,-910.0,62.32,-9.12,-367.84
347013.8276,160.186,-392.108,917.379,-647.5,2983.75,-402.5,47.12,-10.64,-369.36
347013.8776,163.053,-397.11,919.697,-420.0,2528.75,-43.75,42.56,0.0,-354.16
347013.9276,164.151,-385.093,921.039,630.0,2703.75,-376.25,68.4,-7.6,-351.12
347013.9776,161.955,-387.045,920.49,-1496.25,2800.0,-341.25,54.72,-3.04,-354.16
347014.0276,165.859,-418.277,919.026,1951.25,3220.0,-1793.75,59.28,-6.08,-352.64
347014.0776,157.014,-383.08,917.013,3307.5,3062.5,-2572.5,51.68,3.04,-361.76
347014.1276,167.201,-355.874,932.995,1295.0,2957.5,-2266.25,62.32,-16.72,-354.16
347014.1776,158.051,-379.176,918.904,-3263.75,3150.0,463.75,69.92,-16.72,-348.08
347014.2276,157.868,-400.953,919.575,-1916.25,2913.75,376.25,62.32,-13.68,-345.04
347014.2776,157.563,-398.452,923.479,-927.5,1890.0,-26.25,41.04,-24.32,-352.64
347014.3276,175.07,-404.796,912.743,61.25,3255.0,-682.5,54.72,-18.24,-351.12
347014.3776,159.881,-399.672,924.76,1767.5,3088.75,-26.25,54.72,-16.72,-354.16
347014.4276,159.759,-373.503,925.675,595.0,2791.25,-1723.75,63.84,-9.12,-370.88
347014.4776,169.824,-383.141,916.586,-1408.75,2485.0,-315.0,63.84,-18.24,-351.12
347014.5276,157.502,-396.378,924.333,761.25,3071.25,1128.75,60.8,-9.12,-357.2
347014.5777,162.443,-392.291,924.211,-691.25,2633.75,-647.5,54.72,-16.72,-361.76
347014.6276,166.042,-389.18,920.734,-542.5,2458.75,-1408.75,56.24,-10.64,-345.04
347014.6776,165.737,-397.659,921.161,-35.0,3220.0,-385.0,44.08,-6.08,-352.64
347014.7276,160.186,-388.814,920.856,-568.75,2432.5,358.75,62.32,-4.56,-357.2
347014.7776,161.772,-394.304,921.771,393.75,1356.25,227.5,69.92,-13.68,-343.52
347014.8276,166.53,-389.668,917.928,271.25,1933.75,35.0,62.32,3.04,-355.68
347014.8776,177.754,-385.337,921.283,-1356.25,3123.75,-997.5,53.2,-4.56,-352.64
347014.9276,166.103,-401.685,917.745,262.5,3552.5,-1032.5,39.52,-4.56,-348.08
347014.9776,163.419,-395.646,915.427,-577.5,3325.0,-227.5,47.12,-18.24,-357.2
347015.0276,163.175,-392.352,920.063,743.75,3290.0,-840.0,74.48,-10.64,-346.56
347015.0776,166.286,-389.973,917.562,-481.25,3491.25,-997.5,56.24,-9.12,-343.52
347015.1276,164.212,-390.4,919.453,-953.75,3500.0,-1207.5,57.76,-10.64,-358.72
347015.1776,157.624,-397.964,922.686,-778.75,2668.75,236.25,56.24,-10.64,-355.68
347015.2276,161.345,-405.467,921.954,603.75,2887.5,-997.5,53.2,-16.72,-354.16
347015.2776,161.101,-400.038,920.063,-105.0,2616.25,-901.25,62.32,-16.72,-351.12
347015.3276,161.955,-390.339,924.455,1190.0,2467.5,-630.0,57.76,-6.08,-354.16
347015.3776,166.469,-390.461,917.257,-822.5,2791.25,-411.25,50.16,-12.16,-357.2
347015.4276,162.321,-395.768,921.71,-236.25,3053.75,-201.25,54.72,-9.12,-348.08
347015.4776,160.674,-401.563,923.113,-315.0,2581.25,-1015.0,54.72,-10.64,-358.72
347015.5276,165.615,-397.415,920.673,700.0,2528.75,-848.75,45.6,-12.16,-354.16
347015.5776,160.247,-393.816,918.05,595.0,2598.75,-17.5,65.36,-7.6,-352.64
347015.6276,163.968,-383.08,921.344,-1548.75,3202.5,-1435.0,68.4,-3.04,-355.68
347015.6776,168.116,-402.966,921.71,-192.5,2861.25,148.75,53.2,1.52,-352.64
347015.7276,161.284,-395.951,922.503,-980.0,2511.25,901.25,60.8,-7.6,-354.16
347015.7776,172.569,-409.676,914.756,840.0,2423.75,-148.75,72.96,-3.04,-349.6
347015.8276,169.641,-385.642,916.281,315.0,3727.5,-26.25,57.76,-18.24,-355.68
347015.8776,162.687,-397.415,919.758,131.25,3377.5,-1916.25,50.16,1.52,-340.48
347015.9276,164.517,-381.738,924.699,-761.25,2633.75,-183.75,48.64,-7.6,-358.72
347015.9776,159.637,-388.326,917.867,-2240.0,2756.25,2187.5,63.84,-16.72,-355.68
347016.0276,155.123,-418.643,919.636,-1023.75,1881.25,-315.0,47.12,-7.6,-358.72
347016.0776,166.652,-410.835,916.525,971.25,2038.75,-2231.25,56.24,1.52,-352.64
347016.1276,167.811,-397.903,916.037,262.5,2773.75,-883.75,65.36,-10.64,-335.92
347016.1776,166.591,-396.5,921.71,428.75,2922.5,-980.0,59.28,-10.64,-349.6
347016.2276,171.959,-405.406,919.697,-323.75,3158.75,-831.25,59.28,-10.64,-358.72
347016.2776,160.674,-395.463,918.05,420.0,2913.75,-761.25,51.68,-4.56,-354.16
347016.3276,161.833,-391.498,918.538,-735.0,2537.5,-17.5,59.28,-3.04,-357.2
347016.3776,165.127,-388.753,924.821,-1312.5,2721.25,-253.75,44.08,-6.08,-343.52
347016.4276,167.872,-412.97,913.841,-2100.0,2528.75,428.75,60.8,-13.68,-340.48
347016.4776,158.661,-400.831,918.233,472.5,2878.75,131.25,53.2,-6.08,-358.72
347016.5277,172.569,-402.966,916.586,-35.0,2616.25,-1120.0,51.68,-6.08,-348.08
347016.5776,168.543,-406.992,912.316,-218.75,3640.0,-446.25,59.28,-7.6,-342.0
347016.6276,163.053,-394.914,918.904,122.5,3316.25,-1233.75,66.88,-6.08,-338.96
347016.6776,163.297,-401.807,920.612,-971.25,3018.75,-1566.25,65.36,-13.68,-342.0
347016.7276,167.262,-405.04,916.403,980.0,3316.25,-901.25,59.28,-9.12,-345.04
347016.7776,157.685,-395.219,920.856,1277.5,3062.5,-1443.75,62.32,-9.12,-361.76
347016.8276,163.358,-391.071,917.379,-131.25,2677.5,-1793.75,54.72,-4.56,-349.6
347016.8776,165.249,-397.842,917.379,288.75,2948.75,-227.5,48.64,-12.16,-349.6
347016.9276,162.626,-394.182,917.257,78.75,3001.25,-612.5,71.44,-10.64,-348.08
347016.9776,166.164,-399.855,916.22,-953.75,2861.25,-1426.25,69.92,-16.72,-348.08
347017.0276,162.748,-405.894,921.527,1172.5,3071.25,-446.25,60.8,-7.6,-352.64
347017.0776,162.016,-397.903,916.891,210.0,2835.0,-533.75,47.12,-12.16,-342.0
347017.1276,164.7,-391.681,922.259,-385.0,2983.75,-1575.0,59.28,4.56,-351.12
347017.1776,162.626,-404.003,914.451,-1190.0,3088.75,8.75,65.36,-15.2,-352.64
347017.2276,158.234,-407.968,915.366,358.75,2677.5,35.0,53.2,-6.08,-338.96
347017.2776,174.399,-394.426,915.854,-227.5,2476.25,-682.5,54.72,-3.04,-354.16
347017.3276,164.212,-404.308,916.22,-78.75,2983.75,-297.5,38.0,4.56,-351.12
347017.3776,166.408,-390.095,917.623,-507.5,3290.0,-901.25,45.6,1.52,-360.24
347017.4276,163.663,-402.417,918.782,-778.75,2905.0,-542.5,57.76,-10.64,-358.72
347017.4776,166.652,-406.016,916.586,498.75,3062.5,-840.0,62.32,-16.72,-348.08
347017.5276,163.297,-395.28,917.379,-306.25,2712.5,-980.0,66.88,-12.16,-340.48
347017.5776,162.809,-402.173,914.573,-1111.25,2948.75,-743.75,59.28,-6.08,-363.28
347017.6276,170.007,-394.182,916.342,245.0,2642.5,-306.25,54.72,-12.16,-351.12
347017.6776,167.384,-401.99,917.623,-1198.75,3088.75,-770.0,48.64,1.52,-360.24
347017.7276,167.445,-399.428,914.451,-875.0,3080.0,-1216.25,68.4,-4.56,-352.64
347017.7776,167.689,-409.005,916.342,70.0,3465.0,-1382.5,51.68,-7.6,-345.04
347017.8276,162.26,-398.452,915.915,52.5,2800.0,-796.25,63.84,-6.08,-346.56
347017.8776,160.003,-397.842,920.917,-1146.25,2450.0,-700.0,56.24,3.04,-340.48
347017.9276,167.628,-413.031,916.464,-428.75,3115.0,-157.5,63.84,-6.08,-367.84
347017.9776,158.783,-398.086,913.231,-280.0,2073.75,-542.5,62.32,-3.04,-361.76
347018.0276,171.227,-411.384,912.255,52.5,2493.75,-288.75,60.8,-10.64,-351.12
347018.0776,163.419,-400.465,914.817,437.5,2931.25,-472.5,74.48,0.0,-342.0
347018.1276,163.846,-391.193,919.514,-875.0,3001.25,-1146.25,56.24,-21.28,-346.56
347018.1776,164.456,-409.31,919.331,-1260.0,2896.25,-638.75,57.76,-6.08,-363.28
347018.2276,163.663,-402.356,917.44,43.75,3053.75,-630.0,63.84,0.0,-345.04
347018.2776,164.09,-406.138,919.331,-8.75,2800.0,-822.5,53.2,-7.6,-354.16
347018.3276,160.735,-400.404,915.366,87.5,2572.5,-350.0,74.48,-9.12,-351.12
347018.3776,170.739,-400.16,913.475,201.25,2668.75,-306.25,53.2,-7.6,-351.12
347018.4276,163.48,-404.491,914.024,-901.25,3036.25,-350.0,50.16,-6.08,-354.16
347018.4777,161.589,-407.663,917.745,761.25,2450.0,-656.25,66.88,-6.08,-355.68
347018.5276,164.517,-403.393,914.695,-560.0,2931.25,-236.25,56.24,-10.64,-352.64
347018.5776,167.872,-392.291,921.161,35.0,3193.75,-1373.75,63.84,-4.56,-340.48
347018.6276,162.382,-404.735,915.0,-297.5,2966.25,-813.75,50.16,-6.08,-364.8
347018.6776,159.21,-404.003,913.292,-805.0,2948.75,367.5,54.72,-4.56,-351.12
347018.7276,165.005,-403.088,917.684,280.0,1986.25,-306.25,60.8,0.0,-358.72
347018.7776,173.118,-399.855,910.303,-997.5,2765.0,-236.25,54.72,-6.08,-354.16
347018.8276,168.665,-402.966,918.172,752.5,3718.75,-1365.0,59.28,-3.04,-343.52
347018.8776,159.393,-410.286,917.867,-621.25,3220.0,-1041.25,60.8,-12.16,-352.64
347018.9276,165.371,-409.92,918.355,927.5,3045.0,-1277.5,60.8,-7.6,-346.56
347018.9776,162.626,-396.744,916.464,122.5,3053.75,-568.75,65.36,-18.24,-346.56
347019.0276,159.576,-405.65,917.135,61.25,2878.75,-262.5,71.44,3.04,-343.52
347019.0776,165.676,-406.87,916.83,1268.75,1855.0,-700.0,53.2,-9.12,-351.12
347019.1276,170.312,-392.413,917.135,-472.5,2695.0,-437.5,47.12,-4.56,-354.16
347019.1776,164.212,-402.295,914.573,-280.0,2800.0,-525.0,57.76,-7.6,-351.12
347019.2276,160.674,-408.09,915.244,-332.5,3228.75,-183.75,69.92,-18.24,-360.24
347019.2776,161.589,-403.759,918.843,-70.0,2056.25,-70.0,62.32,-6.08,-346.56
347019.3276,157.746,-412.848,921.832,507.5,2371.25,-953.75,54.72,9.12,-345.04
347019.3776,157.868,-405.162,912.011,1408.75,1723.75,-700.0,51.68,3.04,-348.08
347019.4276,173.362,-403.149,912.255,315.0,2170.0,-113.75,53.2,1.52,-348.08
347019.4776,172.386,-401.38,910.486,1120.0,3193.75,-1050.0,48.64,-7.6,-357.2
347019.5276,163.053,-399.428,912.621,533.75,3176.25,-568.75,53.2,-12.16,-348.08
347019.5776,164.822,-394.853,918.843,-358.75,3473.75,-857.5,68.4,-9.12,-346.56
347019.6276,160.491,-406.443,917.379,-35.0,3106.25,-481.25,66.88,-6.08,-346.56
347019.6776,159.698,-400.343,918.599,796.25,2800.0,-1163.75,57.76,0.0,-358.72
347019.7276,163.297,-396.134,914.451,-490.0,2511.25,-726.25,54.72,-4.56,-352.64
347019.7776,165.066,-404.247,916.342,-428.75,2633.75,-87.5,48.64,3.04,-361.76
347019.8276,173.24,-406.382,912.377,-577.5,2913.75,-700.0,68.4,-9.12,-349.6
347019.8776,166.835,-403.088,917.867,-253.75,3307.5,-1111.25,74.48,-10.64,-357.2
347019.9276,160.796,-405.345,915.183,1216.25,2905.0,-875.0,51.68,-4.56,-355.68
347019.9776,163.907,-401.136,919.209,-61.25,2633.75,-376.25,51.68,-10.64,-355.68
347020.0276,167.506,-388.387,919.575,-350.0,3001.25,-1277.5,54.72,-10.64,-338.96
347020.0776,165.31,-410.896,913.231,-315.0,3010.0,-665.0,41.04,-7.6,-349.6
347020.1276,163.236,-406.138,917.989,157.5,2668.75,-87.5,66.88,-4.56,-343.52
347020.1776,169.946,-409.554,914.756,-157.5,2222.5,-910.0,62.32,-12.16,-340.48
347020.2276,167.201,-407.419,913.414,140.0,3080.0,-201.25,54.72,-7.6,-360.24
347020.2776,166.713,-392.901,915.61,560.0,3158.75,-787.5,50.16,-3.04,-357.2
347020.3276,163.297,-398.025,917.562,-455.0,2703.75,-787.5,66.88,-9.12,-358.72
347020.3776,166.164,-403.759,914.817,-647.5,2983.75,-420.0,57.76,0.0,-351.12
347020.4278,159.576,-392.047,917.562,-700.0,2966.25,-647.5,59.28,-9.12,-348.08
347020.4776,165.493,-407.297,916.403,-647.5,2371.25,-1032.5,63.84,3.04,-355.68
347020.5277,172.02,-411.14,916.159,533.75,2397.5,-673.75,42.56,-15.2,-335.92
347020.5776,170.617,-400.221,915.427,-8.75,3088.75,-822.5,56.24,-4.56,-343.52
347020.6276,165.371,-409.493,916.769,-332.5,3115.0,-647.5,69.92,-7.6,-357.2
347020.6776,163.968,-398.452,914.329,490.0,2992.5,-411.25,68.4,-6.08,-351.12
347020.7276,165.005,-395.402,915.488,630.0,2406.25,-822.5,69.92,-3.04,-349.6
347020.7776,163.724,-397.354,921.283,-691.25,2852.5,-577.5,65.36,0.0,-358.72
347020.8276,162.931,-413.641,916.159,8.75,3246.25,-105.0,54.72,-12.16,-345.04
347020.8776,164.7,-403.027,916.525,1128.75,2248.75,-385.0,48.64,-15.2,-358.72
347020.9276,175.497,-395.402,911.767,-1137.5,2730.0,-603.75,57.76,-18.24,-349.6
347020.9776,166.713,-409.798,911.523,-43.75,3053.75,-437.5,56.24,-10.64,-352.64
347021.0276,165.798,-396.134,917.745,-490.0,3202.5,-1496.25,62.32,-15.2,-351.12
347021.0776,168.421,-408.151,914.512,-253.75,3027.5,-892.5,47.12,-10.64,-348.08
347021.1276,164.029,-399.428,915.305,420.0,3263.75,-638.75,53.2,-12.16,-355.68
347021.1776,160.186,-402.478,912.011,-603.75,2756.25,-822.5,57.76,4.56,-352.64
347021.2276,161.711,-400.404,915.671,-43.75,1995.0,-551.25,63.84,-9.12,-345.04
347021.2776,173.911,-406.443,913.841,-656.25,2817.5,-420.0,57.76,1.52,-354.16
347021.3276,167.262,-412.36,918.05,-236.25,3281.25,-840.0,68.4,3.04,-346.56
347021.3776,165.493,-409.798,920.368,735.0,2791.25,-761.25,62.32,-13.68,-351.12
347021.4276,165.859,-404.613,912.926,245.0,2660.0,-673.75,54.72,-6.08,-355.68
347021.4776,166.835,-393.023,917.562,525.0,3211.25,-1303.75,62.32,-4.56,-346.56
347021.5276,166.835,-410.957,914.146,-551.25,2441.25,-122.5,45.6,0.0,-348.08
347021.5776,166.469,-400.404,914.268,-297.5,2450.0,-463.75,57.76,-3.04,-345.04
347021.6276,172.996,-408.578,911.828,-210.0,2423.75,-630.0,59.28,-4.56,-342.0
347021.6776,165.737,-405.711,912.316,306.25,3045.0,-621.25,63.84,0.0,-352.64
347021.7276,170.739,-398.696,915.305,-376.25,3185.0,-1093.75,51.68,-16.72,-354.16
347021.7776,162.687,-403.82,918.599,-542.5,2878.75,-367.5,62.32,-3.04,-337.44
347021.8276,168.787,-406.382,915.427,0.0,3246.25,-726.25,68.4,-7.6,-343.52
347021.8776,164.944,-405.65,914.451,367.5,2931.25,-1128.75,56.24,-7.6,-354.16
347021.9276,166.591,-399.306,912.499,-376.25,2852.5,-393.75,54.72,-10.64,-351.12
347021.9776,170.373,-406.138,916.22,-236.25,2791.25,-437.5,53.2,-6.08,-346.56
347022.0276,169.58,-411.872,913.414,-122.5,3010.0,-411.25,56.24,-9.12,-346.56
347022.0776,162.87,-414.068,915.854,1260.0,2808.75,-1225.0,53.2,1.52,-348.08
347022.1276,168.421,-394.121,912.743,-411.25,3010.0,-507.5,62.32,-16.72,-349.6
347022.1776,168.97,-402.966,921.344,-393.75,3167.5,-796.25,63.84,-10.64,-348.08
347022.2276,164.639,-400.16,919.819,-726.25,2738.75,-857.5,65.36,-9.12,-338.96
347022.2776,166.713,-404.186,913.597,-157.5,3368.75,-280.0,57.76,3.04,-349.6
347022.3276,162.26,-408.883,915.427,-428.75,2721.25,26.25,62.32,-12.16,-360.24
347022.3776,172.325,-403.759,912.194,78.75,2572.5,-376.25,65.36,1.52,-349.6
347022.4276,171.715,-401.807,915.244,315.0,2940.0,-708.75,59.28,-9.12,-355.68
347022.4777,165.31,-401.38,916.647,-411.25,3237.5,-700.0,60.8,-9.12,-348.08
347022.5276,169.824,-412.116,915.183,-218.75,3167.5,-315.0,56.24,-4.56,-343.52
347022.5776,163.419,-403.332,914.817,367.5,2905.0,-796.25,48.64,-9.12,-357.2
347022.6276,163.907,-400.282,916.159,122.5,2791.25,-892.5,51.68,4.56,-352.64
347022.6776,164.517,-412.909,916.952,682.5,2502.5,-280.0,71.44,-4.56,-352.64
347022.7276,166.896,-395.158,911.95,-533.75,2800.0,43.75,39.52,-7.6,-346.56
347022.7776,166.347,-416.691,916.037,245.0,2975.0,-472.5,51.68,-10.64,-346.56
347022.8276,167.994,-398.391,915.366,953.75,2835.0,-717.5,59.28,-9.12,-355.68
347022.8776,165.31,-406.321,916.403,-568.75,2817.5,-586.25,60.8,-7.6,-357.2
347022.9276,165.737,-399.123,918.66,-813.75,3395.0,-612.5,47.12,-9.12,-331.36
347022.9776,160.186,-411.933,912.621,-525.0,3010.0,-61.25,50.16,-3.04,-355.68
347023.0276,163.663,-404.918,915.488,-402.5,2371.25,0.0,53.2,-13.68,-355.68
347023.0776,170.251,-406.26,911.279,-831.25,2345.0,-376.25,62.32,-3.04,-342.0
347023.1276,164.517,-410.957,912.255,113.75,2756.25,437.5,60.8,-19.76,-351.12
347023.1776,165.371,-401.197,916.891,-245.0,3132.5,-910.0,71.44,4.56,-351.12
347023.2276,166.225,-406.504,916.159,-271.25,2843.75,-682.5,59.28,-6.08,-348.08
347023.2776,163.419,-409.92,913.963,122.5,3185.0,-341.25,59.28,-4.56,-349.6
347023.3276,163.236,-400.16,917.013,280.0,2861.25,-568.75,62.32,0.0,-342.0
347023.3776,165.432,-414.556,910.486,245.0,2756.25,-560.0,51.68,-6.08,-348.08
347023.4276,168.909,-407.602,911.828,96.25,3053.75,-332.5,57.76,-7.6,-354.16
347023.4776,166.347,-405.101,914.512,358.75,2905.0,-1303.75,66.88,-22.8,-326.8
347023.5276,166.408,-407.236,915.183,402.5,2730.0,-1400.0,60.8,-7.6,-340.48
347023.5776,163.053,-402.966,912.011,78.75,3036.25,-612.5,53.2,4.56,-354.16
347023.6276,165.066,-394.304,920.063,-140.0,3001.25,-1146.25,53.2,4.56,-354.16
347023.6776,162.809,-412.604,916.037,-848.75,2441.25,-236.25,48.64,-7.6,-340.48
347023.7276,164.09,-412.604,913.78,280.0,2336.25,323.75,53.2,-7.6,-348.08
347023.7776,174.765,-404.552,911.95,892.5,2432.5,-875.0,53.2,-4.56,-349.6
347023.8276,172.325,-405.345,911.828,-26.25,3185.0,-586.25,57.76,-3.04,-331.36
347023.8776,171.837,-394.304,912.133,17.5,3176.25,-743.75,53.2,-7.6,-338.96
347023.9276,170.251,-408.212,918.416,-595.0,3132.5,-700.0,56.24,4.56,-348.08
347023.9776,169.946,-406.443,914.268,-43.75,4305.0,-586.25,54.72,-4.56,-357.2
347024.0276,155.001,-400.099,918.66,-516.25,3552.5,-1723.75,62.32,-13.68,-343.52
347024.0776,156.587,-406.443,916.647,-612.5,2913.75,-1916.25,66.88,-13.68,-342.0
347024.1276,160.796,-408.334,914.695,78.75,2660.0,-682.5,47.12,3.04,-360.24
347024.1776,164.822,-408.212,916.22,-918.75,2161.25,70.0,50.16,-7.6,-358.72
347024.2276,170.617,-413.275,917.623,210.0,2187.5,183.75,57.76,-4.56,-342.0
347024.2776,169.702,-411.384,908.229,708.75,2870.0,-490.0,56.24,0.0,-357.2
347024.3276,171.105,-404.247,915.793,1373.75,3237.5,-1207.5,63.84,-7.6,-342.0
347024.3776,163.907,-403.576,915.244,-1811.25,3106.25,-787.5,57.76,-9.12,-343.52
347024.4278,164.395,-411.811,912.804,-17.5,3430.0,-420.0,30.4,-12.16,-345.04
347024.4776,162.992,-399.184,913.353,507.5,2135.0,-280.0,56.24,-7.6,-352.64
347024.5277,173.484,-411.018,912.682,-262.5,3027.5,-621.25,59.28,-7.6,-358.72
347024.5776,170.556,-407.663,914.207,1058.75,2607.5,-673.75,60.8,-3.04,-343.52
347024.6276,162.443,-403.759,915.915,-533.75,3088.75,-857.5,74.48,-18.24,-348.08
347024.6776,166.835,-413.153,913.17,-507.5,2957.5,-761.25,59.28,-6.08,-337.44
347024.7276,161.406,-404.003,913.048,568.75,3185.0,-1146.25,59.28,-13.68,-352.64
347024.7776,162.931,-403.637,915.183,-376.25,2730.0,-962.5,50.16,4.56,-355.68
347024.8276,169.275,-405.04,913.719,-455.0,2651.25,-288.75,62.32,0.0,-348.08
347024.8776,169.275,-405.65,915.305,-516.25,2870.0,-148.75,63.84,-3.04,-352.64
347024.9276,168.299,-407.785,913.719,-1286.25,3211.25,446.25,48.64,0.0,-349.6
347024.9776,161.589,-408.212,914.024,656.25,2896.25,-568.75,54.72,-4.56,-355.68
347025.0276,163.724,-406.016,913.109,87.5,2485.0,-1198.75,50.16,-7.6,-366.32
347025.0776,163.114,-409.493,916.769,-463.75,3211.25,-796.25,62.32,-9.12,-360.24
347025.1276,166.286,-407.358,914.085,323.75,2782.5,-665.0,71.44,4.56,-337.44
347025.1776,165.188,-404.491,910.852,-26.25,2572.5,-463.75,57.76,-4.56,-345.04
347025.2276,173.728,-403.759,912.987,-87.5,2878.75,166.25,63.84,-3.04,-345.04
347025.2776,164.456,-413.336,911.401,-140.0,2712.5,-315.0,44.08,-7.6,-360.24
347025.3276,170.861,-396.988,915.793,-551.25,3526.25,-1951.25,48.64,3.04,-357.2
347025.3776,165.005,-409.92,915.915,218.75,2983.75,-568.75,65.36,3.04,-334.4
347025.4276,163.846,-407.236,914.024,-402.5,3298.75,-708.75,59.28,-13.68,-340.48
347025.4776,163.663,-407.297,914.634,-122.5,2756.25,-962.5,62.32,-3.04,-363.28
347025.5276,162.748,-404.857,913.109,-87.5,2730.0,-586.25,51.68,-6.08,-360.24
347025.5776,166.469,-409.371,915.671,-752.5,2327.5,61.25,69.92,-9.12,-340.48
347025.6276,165.005,-419.253,909.266,-525.0,2310.0,-700.0,65.36,-6.08,-348.08
347025.6776,172.264,-412.482,915.549,507.5,2450.0,-1548.75,57.76,-10.64,-352.64
347025.7276,170.007,-407.419,911.767,997.5,2791.25,-463.75,48.64,-6.08,-354.16
347025.7776,169.153,-396.988,916.342,-743.75,3578.75,-831.25,66.88,-9.12,-355.68
347025.8276,166.591,-413.153,915.427,-341.25,3281.25,-446.25,68.4,-9.12,-351.12
347025.8776,159.576,-406.931,914.878,481.25,2213.75,-96.25,71.44,1.52,-343.52
347025.9276,172.081,-407.907,910.669,-595.0,2310.0,-385.0,68.4,0.0,-337.44
347025.9776,166.408,-407.236,913.109,-43.75,2861.25,-201.25,42.56,-12.16,-338.96
347026.0276,165.737,-403.515,915.549,-883.75,3228.75,-1277.5,50.16,-3.04,-355.68
347026.0776,169.824,-417.24,909.083,-708.75,2975.0,-428.75,50.16,4.56,-351.12
347026.1276,171.41,-406.565,914.573,-420.0,3342.5,-2450.0,54.72,-3.04,-349.6
347026.1776,166.408,-407.541,916.647,-498.75,3675.0,-1846.25,53.2,1.52,-354.16
347026.2276,161.528,-413.153,912.743,-533.75,2668.75,-822.5,62.32,1.52,-337.44
347026.2776,170.983,-414.19,911.828,-936.25,2668.75,-411.25,62.32,0.0,-343.52
347026.3276,166.835,-418.887,914.695,-271.25,3237.5,-656.25,60.8,-6.08,-360.24
347026.3776,168.97,-416.142,911.706,183.75,3395.0,-1776.25,56.24,-9.12,-345.04
347026.4276,164.151,-406.321,906.582,-96.25,3911.25,-1846.25,63.84,-12.16,-351.12
347026.4777,162.016,-407.053,915.793,-52.5,3858.75,-682.5,51.68,-10.64,-348.08
347026.5276,156.465,-417.789,911.523,-595.0,2590.0,-1076.25,53.2,-13.68,-346.56
347026.5776,168.421,-412.604,911.767,542.5,2800.0,-437.5,39.52,1.52,-358.72
347026.6276,163.297,-412.604,909.571,218.75,2738.75,315.0,50.16,-12.16,-342.0
347026.6776,168.97,-412.299,909.266,-192.5,2563.75,-437.5,63.84,3.04,-351.12
347026.7276,172.203,-404.491,912.56,-402.5,3841.25,-953.75,56.24,-4.56,-335.92
347026.7776,163.785,-415.044,911.645,-612.5,3543.75,-1093.75,50.16,-3.04,-342.0
347026.8276,161.955,-414.129,912.621,647.5,3088.75,-1251.25,51.68,-4.56,-354.16
347026.8776,161.833,-407.236,913.109,-61.25,2782.5,-1032.5,45.6,-15.2,-338.96
347026.9276,166.652,-409.493,911.34,-87.5,2607.5,-183.75,66.88,-3.04,-340.48
347026.9776,167.994,-415.105,909.083,122.5,2257.5,131.25,62.32,-21.28,-342.0
347027.0276,168.97,-412.787,911.218,-35.0,2695.0,-708.75,62.32,-3.04,-351.12
347027.0776,169.031,-424.072,908.656,-166.25,3333.75,-577.5,51.68,-4.56,-346.56
347027.1276,168.116,-409.859,910.608,1697.5,3605.0,-1627.5,44.08,-9.12,-342.0
347027.1776,164.883,-410.835,917.257,1190.0,2992.5,-1505.0,62.32,0.0,-343.52
347027.2276,160.613,-410.835,914.146,-787.5,2835.0,-332.5,63.84,-7.6,-343.52
347027.2776,159.027,-413.336,915.427,726.25,2712.5,52.5,60.8,1.52,-360.24
347027.3276,164.822,-409.188,906.643,-1225.0,1793.75,-315.0,66.88,1.52,-345.04
347027.3776,177.144,-419.314,906.887,192.5,2677.5,-726.25,69.92,-3.04,-335.92
347027.4276,170.495,-410.652,913.963,315.0,2441.25,-621.25,69.92,-4.56,-343.52
347027.4776,166.347,-413.641,913.719,-1155.0,3255.0,-857.5,47.12,-6.08,-346.56
347027.5276,162.87,-411.201,910.852,-87.5,3176.25,-621.25,54.72,1.52,-358.72
347027.5776,160.918,-406.809,913.353,-525.0,2835.0,-770.0,54.72,3.04,-351.12
347027.6276,164.029,-410.591,910.73,-507.5,2765.0,-682.5,59.28,-6.08,-345.04
347027.6776,165.249,-411.079,912.133,-297.5,2520.0,-586.25,66.88,-12.16,-349.6
347027.7276,175.497,-412.116,910.12,-262.5,2957.5,-595.0,59.28,4.56,-348.08
347027.7776,166.835,-416.142,910.852,-341.25,3403.75,-1146.25,51.68,-6.08,-348.08
347027.8276,159.698,-416.325,911.34,778.75,3027.5,-971.25,51.68,-7.6,-348.08
347027.8776,164.273,-406.016,911.523,131.25,2852.5,-525.0,54.72,-7.6,-355.68
347027.9276,168.787,-406.321,916.159,52.5,2651.25,-691.25,63.84,-15.2,-349.6
347027.9776,164.944,-412.177,915.732,-481.25,2563.75,-665.0,63.84,-4.56,-342.0
347028.0276,163.297,-414.251,909.327,253.75,2660.0,122.5,48.64,-6.08,-355.68
347028.0776,171.288,-413.092,910.608,-87.5,2336.25,-105.0,59.28,1.52,-349.6
347028.1276,174.155,-408.7,910.242,-332.5,3071.25,-673.75,50.16,-6.08,-357.2
347028.1776,172.142,-404.064,909.693,-586.25,3386.25,-1181.25,65.36,-19.76,-342.0
347028.2276,164.7,-413.336,914.207,-1111.25,3403.75,-1085.0,60.8,0.0,-338.96
347028.2776,161.894,-421.937,910.608,490.0,3027.5,-665.0,53.2,-12.16,-348.08
347028.3276,162.809,-405.406,915.0,201.25,2642.5,-1093.75,66.88,-3.04,-343.52
347028.3776,167.323,-419.497,910.547,-288.75,2730.0,-848.75,54.72,-7.6,-345.04
347028.4278,166.286,-407.48,910.12,271.25,2231.25,288.75,54.72,-9.12,-331.36
347028.4776,172.142,-413.702,908.473,-183.75,2397.5,350.0,60.8,4.56,-351.12
347028.5277,168.116,-413.153,913.78,-253.75,3316.25,-988.75,53.2,-9.12,-346.56
347028.5776,164.151,-413.519,912.377,761.25,2756.25,-822.5,57.76,3.04,-332.88
347028.6276,162.321,-407.48,910.547,262.5,2817.5,-568.75,59.28,-6.08,-354.16
347028.6776,169.214,-402.356,913.231,245.0,2922.5,-1067.5,74.48,-10.64,-346.56
347028.7276,165.127,-407.663,913.414,-1303.75,2773.75,-297.5,54.72,-6.08,-349.6
347028.7776,163.785,-420.473,911.096,227.5,2712.5,-376.25,57.76,-13.68,-354.16
347028.8276,168.116,-408.334,911.462,87.5,2362.5,-507.5,56.24,-9.12,-351.12
347028.8776,170.251,-411.933,906.826,-245.0,2940.0,-866.25,56.24,-4.56,-348.08
347028.9276,172.325,-406.992,910.486,341.25,3403.75,-1058.75,51.68,-12.16,-352.64
347028.9776,163.724,-411.018,914.024,-560.0,3333.75,-752.5,53.2,3.04,-354.16
347029.0276,167.384,-415.837,912.133,463.75,2835.0,-857.5,63.84,-10.64,-351.12
347029.0776,165.005,-409.554,913.17,717.5,3027.5,-673.75,59.28,-16.72,-351.12
347029.1276,161.65,-415.715,910.669,455.0,2607.5,-647.5,48.64,4.56,-337.44
347029.1776,168.055,-408.09,914.512,183.75,2240.0,-52.5,59.28,-13.68,-340.48
347029.2276,173.728,-404.918,909.022,-201.25,2843.75,-113.75,45.6,-6.08,-343.52
347029.2776,169.214,-418.033,911.706,-1435.0,2913.75,-901.25,59.28,-10.64,-354.16
347029.3276,166.591,-422.059,910.669,-673.75,3001.25,-813.75,56.24,3.04,-351.12
347029.3776,167.323,-412.421,909.51,490.0,2913.75,-577.5,72.96,-16.72,-343.52
347029.4276,172.447,-407.724,915.244,-542.5,2957.5,-1260.0,54.72,0.0,-335.92
347029.4776,166.652,-415.227,911.523,-638.75,2922.5,-586.25,53.2,-10.64,-346.56
347029.5276,164.029,-416.691,911.096,691.25,3018.75,-78.75,63.84,-7.6,-349.6
347029.5776,165.249,-410.469,909.083,183.75,2345.0,-210.0,54.72,-3.04,-346.56
347029.6276,172.203,-415.044,907.924,-201.25,3325.0,-805.0,62.32,-13.68,-337.44
347029.6776,172.203,-408.212,910.242,-481.25,3211.25,-936.25,57.76,-3.04,-345.04
347029.7276,163.785,-410.225,913.536,-428.75,3456.25,-1172.5,54.72,-7.6,-349.6
347029.7776,167.567,-415.715,910.913,-35.0,2712.5,-735.0,41.04,3.04,-348.08
347029.8276,165.92,-410.957,913.719,175.0,3097.5,-1041.25,65.36,-3.04,-337.44
347029.8776,164.761,-413.336,909.205,183.75,2905.0,-901.25,65.36,-6.08,-343.52
347029.9276,167.628,-416.508,908.168,-761.25,2397.5,-708.75,56.24,-7.6,-348.08
347029.9776,175.68,-415.471,908.839,315.0,2992.5,-367.5,50.16,-7.6,-348.08
347030.0276,170.617,-418.216,913.048,-962.5,3596.25,-761.25,60.8,1.52,-354.16
347030.0776,161.345,-426.451,912.316,638.75,3097.5,-1172.5,45.6,4.56,-345.04
347030.1276,166.591,-404.308,907.314,26.25,2791.25,-323.75,59.28,-3.04,-343.52
347030.1776,168.604,-406.199,910.425,288.75,3272.5,-848.75,44.08,-6.08,-343.52
347030.2276,162.199,-410.103,913.719,-813.75,2651.25,-857.5,63.84,-18.24,-338.96
347030.2776,167.262,-421.205,913.597,-358.75,2808.75,26.25,53.2,1.52,-343.52
347030.3276,165.371,-420.168,907.497,297.5,2660.0,78.75,45.6,-3.04,-343.52
347030.3778,168.055,-409.371,910.12,350.0,2983.75,-1181.25,60.8,-13.68,-337.44
347030.4276,176.534,-406.748,906.643,-271.25,3377.5,-1233.75,79.04,-10.64,-332.88
347030.4777,162.931,-413.092,908.412,-446.25,3430.0,-122.5,53.2,-7.6,-340.48
347030.5276,165.615,-410.896,911.767,148.75,2660.0,-708.75,59.28,-6.08,-349.6
347030.5776,170.617,-412.299,910.913,52.5,3115.0,-1190.0,56.24,-13.68,-342.0
347030.6276,168.36,-414.861,908.412,-61.25,2966.25,-525.0,65.36,-16.72,-338.96
347030.6776,162.992,-416.447,908.107,271.25,2913.75,-297.5,57.76,0.0,-342.0
347030.7276,169.458,-410.835,912.072,-525.0,3132.5,-525.0,51.68,-7.6,-338.96
347030.7776,167.384,-421.022,911.706,-717.5,3141.25,-507.5,47.12,7.6,-351.12
347030.8276,162.199,-416.752,914.085,603.75,2747.5,-612.5,60.8,-6.08,-357.2
347030.8776,163.663,-414.007,909.205,26.25,2572.5,-656.25,54.72,-9.12,-348.08
347030.9276,172.203,-408.151,915.732,586.25,3185.0,-612.5,60.8,-4.56,-340.48
347030.9776,162.504,-416.752,911.706,-796.25,3036.25,-673.75,62.32,-12.16,-338.96
347031.0276,158.539,-418.033,908.961,61.25,2896.25,-26.25,54.72,-4.56,-342.0
347031.0776,161.772,-413.458,905.362,315.0,2292.5,-192.5,51.68,-3.04,-349.6
347031.1276,172.264,-416.813,907.863,-306.25,2773.75,-201.25,51.68,-9.12,-357.2
347031.1776,170.739,-412.238,913.292,-148.75,3456.25,-1093.75,71.44,1.52,-360.24
347031.2276,163.724,-416.874,911.706,78.75,2957.5,-656.25,66.88,-4.56,-345.04
347031.2776,164.944,-414.251,911.096,376.25,2800.0,-997.5,47.12,-6.08,-349.6
347031.3276,164.09,-414.19,912.682,393.75,2948.75,-1461.25,59.28,-12.16,-338.96
347031.3776,159.759,-408.517,908.656,148.75,2511.25,-297.5,65.36,-7.6,-343.52
347031.4276,165.066,-411.872,910.181,-402.5,2283.75,-61.25,54.72,-6.08,-337.44
347031.4776,169.153,-413.336,909.815,-577.5,2957.5,-647.5,51.68,-25.84,-345.04
347031.5276,162.382,-415.166,909.449,-271.25,3158.75,-367.5,48.64,1.52,-355.68
347031.5776,166.652,-415.471,908.412,358.75,2826.25,-1015.0,63.84,4.56,-352.64
347031.6276,169.031,-412.909,911.279,463.75,2642.5,-1382.5,51.68,0.0,-357.2
347031.6776,166.957,-407.053,914.695,-507.5,3631.25,-1365.0,60.8,0.0,-351.12
347031.7276,166.347,-412.421,911.096,-218.75,3001.25,-411.25,48.64,-12.16,-348.08
347031.7776,166.957,-424.011,907.436,481.25,2633.75,-612.5,44.08,3.04,-328.32
347031.8276,171.41,-414.922,906.948,-297.5,2756.25,-787.5,54.72,-10.64,-349.6
347031.8776,166.408,-415.288,912.56,393.75,2975.0,-437.5,53.2,-9.12,-346.56
347031.9276,167.811,-407.114,911.523,227.5,3631.25,-1373.75,60.8,-4.56,-340.48
347031.9776,162.443,-412.36,912.316,-87.5,3080.0,-1032.5,57.76,-6.08,-349.6
347032.0276,162.077,-404.369,909.022,-183.75,3027.5,-1041.25,65.36,3.04,-352.64
347032.0776,163.297,-417.179,909.693,-568.75,2843.75,-577.5,51.68,-3.04,-351.12
347032.1276,162.138,-423.706,912.438,122.5,2231.25,-498.75,69.92,3.04,-348.08
347032.1776,172.203,-422.974,910.913,726.25,2380.0,-840.0,66.88,7.6,-332.88
347032.2276,166.591,-416.752,912.316,280.0,3097.5,-367.5,54.72,4.56,-345.04
347032.2776,163.48,-413.336,908.717,297.5,3097.5,-533.75,60.8,-10.64,-348.08
347032.3276,165.371,-401.99,911.584,-542.5,2887.5,-533.75,56.24,-10.64,-343.52
347032.3776,166.713,-409.493,913.353,-332.5,3080.0,-1251.25,63.84,-9.12,-351.12
347032.4277,163.602,-415.349,912.743,-1207.5,3185.0,-892.5,68.4,1.52,-342.0
347032.4776,164.09,-416.63,911.828,-525.0,2712.5,-52.5,54.72,-10.64,-349.6
347032.5276,165.737,-414.129,906.948,-113.75,2415.0,-323.75,45.6,1.52,-345.04
347032.5776,172.203,-419.009,906.643,-411.25,3150.0,-612.5,50.16,-3.04,-351.12
347032.6276,170.373,-414.739,914.39,490.0,2887.5,-787.5,63.84,-4.56,-340.48
347032.6776,164.822,-412.665,911.157,-218.75,3298.75,-1050.0,53.2,-3.04,-351.12
347032.7282,164.334,-415.349,909.144,201.25,2905.0,-787.5,63.84,-6.08,-338.96
347032.7776,165.615,-415.044,908.961,183.75,3080.0,-831.25,50.16,-12.16,-348.08
347032.8276,162.626,-418.277,910.852,-385.0,2800.0,-708.75,45.6,-3.04,-348.08
347032.8776,165.432,-411.384,909.083,157.5,2423.75,-735.0,33.44,-3.04,-342.0
347032.9276,170.19,-412.787,910.364,-813.75,2983.75,-542.5,59.28,-13.68,-332.88
347032.9776,163.724,-425.597,912.438,-131.25,3010.0,-796.25,50.16,-10.64,-337.44
347033.0276,166.408,-421.144,910.181,682.5,2782.5,-1303.75,50.16,-10.64,-331.36
347033.0776,166.347,-409.493,908.229,358.75,2703.75,-647.5,60.8,4.56,-354.16
347033.1276,163.846,-411.75,911.523,-1190.0,2957.5,-481.25,63.84,1.52,-345.04
347033.1776,165.066,-429.623,905.789,367.5,2695.0,-551.25,66.88,-9.12,-354.16
347033.2276,167.262,-417.667,907.192,498.75,2336.25,-288.75,66.88,-15.2,-343.52
347033.2776,171.654,-419.558,908.168,306.25,2528.75,-577.5,59.28,-9.12,-326.8
347033.3276,168.299,-413.58,908.595,673.75,2948.75,-306.25,65.36,-4.56,-351.12
347033.3776,170.495,-403.332,909.876,61.25,3438.75,-1120.0,62.32,0.0,-352.64
347033.4276,162.138,-414.8,910.73,-262.5,2773.75,-647.5,57.76,-9.12,-343.52
347033.4776,165.066,-409.554,911.889,113.75,2773.75,-997.5,47.12,-3.04,-343.52
347033.5276,166.713,-415.715,910.852,-175.0,2765.0,-1137.5,57.76,-9.12,-337.44
347033.5776,165.249,-413.824,909.327,271.25,2887.5,-393.75,54.72,-12.16,-346.56
347033.6276,165.798,-411.262,907.314,-367.5,2450.0,-323.75,60.8,4.56,-346.56
347033.6776,170.007,-418.033,909.022,-822.5,2948.75,-490.0,62.32,-7.6,-342.0
347033.7276,164.761,-420.351,912.255,603.75,2852.5,-988.75,47.12,-4.56,-335.92
347033.7776,167.567,-412.726,910.303,-288.75,2992.5,-533.75,54.72,-6.08,-348.08
347033.8276,168.97,-406.809,912.56,122.5,3237.5,-980.0,51.68,-6.08,-348.08
347033.8776,163.053,-410.835,914.024,-1303.75,3132.5,-673.75,51.68,1.52,-354.16
347033.9276,161.467,-416.935,912.255,70.0,2966.25,-507.5,53.2,-12.16,-332.88
347033.9776,169.031,-417.667,905.24,8.75,2248.75,-376.25,53.2,-3.04,-325.28
347034.0276,172.325,-416.996,907.497,-726.25,2948.75,-350.0,54.72,4.56,-354.16
347034.0776,171.471,-420.229,909.876,866.25,3123.75,-1015.0,50.16,-7.6,-354.16
347034.1276,165.92,-403.698,910.242,-385.0,3246.25,-1365.0,57.76,-12.16,-338.96
347034.1776,169.641,-425.658,909.083,341.25,2625.0,-612.5,59.28,1.52,-348.08
347034.2276,165.005,-413.336,907.375,210.0,3027.5,-927.5,56.24,-4.56,-345.04
347034.2776,164.761,-409.554,908.839,-726.25,2765.0,-1067.5,51.68,-6.08,-343.52
347034.3276,167.628,-421.937,906.887,-52.5,2730.0,61.25,44.08,-6.08,-349.6
347034.3777,171.41,-419.497,909.388,288.75,2773.75,-323.75,42.56,-9.12,-352.64
347034.4276,167.994,-418.033,911.096,-78.75,2940.0,-1268.75,45.6,-4.56,-351.12
347034.4776,169.519,-414.434,911.462,428.75,3018.75,-218.75,47.12,4.56,-334.4
347034.5276,164.883,-418.155,907.558,463.75,2905.0,-306.25,57.76,-9.12,-340.48
347034.5776,165.676,-406.138,912.56,-507.5,2913.75,-1172.5,57.76,-7.6,-348.08
347034.6276,169.336,-417.606,908.351,-1216.25,2975.0,-157.5,53.2,-6.08,-352.64
347034.6776,158.295,-418.521,908.961,875.0,3036.25,-411.25,54.72,-12.16,-352.64
347034.7276,172.874,-413.824,906.521,-306.25,2345.0,-603.75,47.12,-9.12,-335.92
347034.7776,168.97,-419.314,909.632,-306.25,2808.75,-280.0,57.76,-18.24,-332.88
347034.8276,169.153,-409.92,912.926,262.5,3552.5,-1330.0,51.68,0.0,-343.52
347034.8776,163.785,-413.153,913.658,-726.25,2817.5,-603.75,59.28,7.6,-348.08
347034.9276,165.859,-418.155,910.364,455.0,2992.5,-350.0,51.68,-12.16,-346.56
347034.9776,164.517,-412.299,910.547,525.0,3036.25,-927.5,62.32,-4.56,-325.28
347035.0276,163.663,-415.166,906.094,-822.5,2817.5,-752.5,48.64,-9.12,-340.48
347035.0776,169.702,-417.484,908.595,113.75,2353.75,-78.75,65.36,-4.56,-358.72
347035.1276,168.36,-417.911,908.107,-183.75,2695.0,-411.25,41.04,3.04,-345.04
347035.1776,165.798,-426.207,908.839,726.25,3010.0,-1277.5,53.2,-6.08,-340.48
347035.2276,167.14,-407.602,909.998,358.75,2607.5,-997.5,50.16,-4.56,-340.48
347035.2776,173.606,-420.29,906.338,385.0,2747.5,-568.75,62.32,-12.16,-338.96
347035.3276,161.772,-423.401,914.268,-8.75,2913.75,-586.25,57.76,-7.6,-340.48
347035.3776,167.14,-423.462,910.669,595.0,2983.75,-726.25,53.2,-4.56,-343.52
347035.4276,168.421,-412.177,908.778,332.5,2502.5,70.0,56.24,1.52,-340.48
347035.4776,172.691,-417.606,905.057,1023.75,2922.5,-332.5,65.36,0.0,-331.36
347035.5276,170.983,-416.447,909.815,1391.25,2388.75,-875.0,60.8,-16.72,-351.12
347035.5776,164.822,-404.735,914.817,376.25,3255.0,-560.0,56.24,-3.04,-345.04
347035.6276,162.138,-414.495,909.815,35.0,2992.5,-402.5,56.24,-6.08,-348.08
347035.6776,165.615,-409.432,912.865,761.25,2826.25,-525.0,56.24,3.04,-357.2
347035.7276,163.48,-409.066,911.462,288.75,2738.75,-1050.0,60.8,-6.08,-343.52
347035.7776,168.909,-410.469,910.242,-385.0,2581.25,-910.0,51.68,-10.64,-334.4
347035.8276,167.506,-413.336,911.767,-577.5,2861.25,-332.5,56.24,-9.12,-346.56
347035.8776,168.543,-418.887,911.218,-498.75,2948.75,-428.75,59.28,-10.64,-349.6
347035.9276,168.482,-412.482,909.449,157.5,3080.0,-1225.0,54.72,0.0,-349.6
347035.9776,161.162,-416.325,914.146,245.0,2782.5,-665.0,59.28,-6.08,-345.04
347036.0276,167.14,-405.04,913.78,-778.75,2948.75,-691.25,65.36,3.04,-352.64
347036.0776,169.824,-416.813,909.022,-210.0,2887.5,-157.5,48.64,4.56,-346.56
347036.1276,164.456,-413.641,908.717,-428.75,2450.0,-140.0,42.56,-12.16,-342.0
347036.1776,171.471,-409.005,910.242,43.75,2528.75,-560.0,47.12,-12.16,-348.08
347036.2276,169.092,-416.325,903.166,-148.75,2773.75,-70.0,39.52,0.0,-343.52
347036.2776,168.97,-413.58,911.645,376.25,3307.5,-1260.0,62.32,-6.08,-343.52
347036.3276,164.822,-411.14,911.767,481.25,2870.0,-1067.5,72.96,-13.68,-334.4
347036.3776,166.286,-407.785,910.913,673.75,3053.75,-787.5,63.84,9.12,-343.52
347036.4277,168.177,-404.857,908.29,-525.0,2695.0,-866.25,56.24,1.52,-345.04
347036.4776,163.175,-412.299,908.351,-463.75,2773.75,-796.25,53.2,7.6,-338.96
347036.5276,169.519,-416.325,913.048,35.0,2782.5,-472.5,60.8,-16.72,-345.04
347036.5776,171.837,-414.373,913.475,-350.0,2957.5,-875.0,54.72,-9.12,-349.6
347036.6283,167.75,-418.704,914.878,971.25,3106.25,-1233.75,47.12,-10.64,-354.16
347036.6776,163.907,-410.225,910.669,367.5,2668.75,-603.75,48.64,-9.12,-354.16
347036.7276,171.349,-401.319,913.902,647.5,2861.25,-1128.75,60.8,-3.04,-345.04
347036.7776,168.665,-418.399,906.521,-980.0,3053.75,-805.0,59.28,-9.12,-343.52
347036.8276,164.883,-417.545,912.499,271.25,2913.75,-332.5,57.76,-18.24,-352.64
347036.8776,170.617,-408.761,907.375,-245.0,2336.25,-420.0,59.28,-16.72,-335.92
347036.9276,169.824,-420.595,906.704,-507.5,2948.75,-595.0,39.52,-21.28,-354.16
347036.9776,172.752,-413.153,911.523,735.0,2861.25,-1128.75,57.76,-9.12,-355.68
347037.0276,164.761,-408.761,912.133,-1391.25,2808.75,-481.25,65.36,-3.04,-340.48
347037.0776,167.872,-420.351,909.327,-105.0,2756.25,-848.75,60.8,3.04,-343.52
347037.1276,166.469,-409.554,909.51,-201.25,3001.25,-953.75,72.96,-7.6,-343.52
347037.1776,166.835,-418.155,912.499,-78.75,2607.5,-927.5,68.4,-12.16,-343.52
347037.2276,171.288,-412.421,910.547,-586.25,2633.75,-586.25,63.84,-10.64,-355.68
347037.2776,170.007,-415.105,911.035,-796.25,2992.5,-525.0,62.32,-9.12,-351.12
347037.3276,168.177,-422.364,911.035,-656.25,2966.25,-455.0,62.32,-7.6,-346.56
347037.3776,166.286,-420.839,911.279,367.5,2887.5,-796.25,38.0,-7.6,-334.4
347037.4276,174.338,-405.467,912.255,122.5,3202.5,-1102.5,53.2,-4.56,-331.36
347037.4776,164.761,-416.935,912.682,-901.25,3053.75,-743.75,47.12,7.6,-345.04
347037.5276,168.299,-417.972,910.303,525.0,2940.0,-516.25,51.68,-12.16,-338.96
347037.5776,164.822,-414.922,908.412,192.5,2415.0,-192.5,50.16,-4.56,-338.96
347037.6276,173.24,-412.36,908.595,-131.25,2738.75,-498.75,53.2,-6.08,-349.6
347037.6776,169.763,-418.094,905.484,166.25,3255.0,-840.0,53.2,16.72,-332.88
347037.7276,168.421,-412.543,910.486,-927.5,3316.25,-1067.5,51.68,-12.16,-351.12
347037.7776,171.349,-421.937,910.303,-455.0,3097.5,-875.0,56.24,0.0,-343.52
347037.8276,167.262,-410.53,910.486,481.25,3386.25,-726.25,50.16,-4.56,-338.96
347037.8776,166.652,-408.944,907.619,-533.75,2572.5,-840.0,41.04,-6.08,-342.0
347037.9276,168.97,-413.214,908.107,-787.5,2581.25,-577.5,53.2,6.08,-351.12
347037.9776,169.092,-415.837,908.656,-498.75,2712.5,17.5,57.76,-4.56,-352.64
347038.0276,169.397,-423.462,912.255,-411.25,2773.75,-936.25,60.8,-10.64,-348.08
347038.0776,169.031,-420.351,908.9,61.25,2511.25,-918.75,82.08,-3.04,-343.52
347038.1276,165.981,-416.569,909.083,376.25,2528.75,-157.5,66.88,-10.64,-348.08
347038.1776,171.349,-408.822,911.157,105.0,3010.0,-1006.25,59.28,0.0,-340.48
347038.2276,172.508,-423.218,906.887,-420.0,2983.75,-533.75,63.84,3.04,-346.56
347038.2776,159.942,-424.987,907.68,-201.25,2493.75,393.75,51.68,-7.6,-342.0
347038.3276,171.41,-420.351,908.534,735.0,2178.75,-437.5,57.76,-3.04,-340.48
347038.3777,171.837,-417.667,908.412,96.25,2931.25,-472.5,41.04,1.52,-338.96
347038.4276,172.569,-409.554,908.29,-393.75,3403.75,-997.5,50.16,-6.08,-346.56
347038.4776,167.201,-421.693,907.314,-183.75,2738.75,-201.25,45.6,-3.04,-349.6
347038.5276,165.005,-413.275,910.73,866.25,2966.25,-1067.5,56.24,7.6,-358.72
347038.5776,163.297,-408.395,908.168,-148.75,2800.0,-1251.25,62.32,-10.64,-334.4
347038.6276,168.787,-426.512,904.02,-437.5,2738.75,-253.75,47.12,0.0,-337.44
347038.6776,169.824,-417.667,910.73,70.0,2730.0,-78.75,59.28,-7.6,-343.52
347038.7276,171.044,-418.155,908.9,-498.75,2756.25,-603.75,59.28,-9.12,-343.52
347038.7776,172.264,-421.754,909.571,507.5,3255.0,-586.25,41.04,3.04,-355.68
347038.8276,159.088,-413.336,909.083,-175.0,2800.0,-297.5,65.36,-16.72,-334.4
347038.8776,169.58,-413.763,914.268,-490.0,2931.25,-752.5,59.28,6.08,-337.44
347038.9276,167.872,-426.451,906.948,-455.0,2791.25,-175.0,54.72,-3.04,-357.2
347038.9776,166.469,-409.615,907.802,-253.75,2528.75,-437.5,47.12,3.04,-343.52
347039.0276,171.898,-425.231,904.386,-533.75,2660.0,568.75,66.88,-6.08,-342.0
347039.0776,169.519,-419.375,906.033,43.75,2590.0,393.75,48.64,3.04,-334.4
347039.1276,169.092,-416.63,912.865,-376.25,3605.0,-1198.75,65.36,1.52,-331.36
347039.1776,168.299,-421.632,914.634,-560.0,3316.25,-778.75,44.08,-3.04,-346.56
347039.2276,165.127,-421.998,907.192,463.75,3045.0,-402.5,51.68,-3.04,-346.56
347039.2776,165.798,-419.741,907.253,682.5,2642.5,-498.75,63.84,-3.04,-352.64
347039.3276,169.336,-415.776,906.521,455.0,2441.25,-1023.75,59.28,0.0,-343.52
347039.3776,175.924,-420.839,906.643,367.5,2406.25,-332.5,56.24,-6.08,-338.96
347039.4276,170.556,-418.704,907.558,26.25,2870.0,-481.25,59.28,-10.64,-346.56
347039.4776,168.909,-412.787,907.314,166.25,3001.25,-1312.5,68.4,0.0,-345.04
347039.5276,165.981,-419.436,905.362,166.25,3053.75,-752.5,51.68,-6.08,-340.48
347039.5776,170.861,-405.04,913.963,-306.25,3220.0,-1172.5,54.72,0.0,-334.4
347039.6276,166.774,-423.401,908.473,-341.25,3071.25,-743.75,66.88,-6.08,-345.04
347039.6776,164.517,-420.351,908.778,341.25,2870.0,-166.25,62.32,-10.64,-335.92
347039.7276,172.02,-419.192,907.436,621.25,2511.25,-761.25,54.72,-3.04,-348.08
347039.7776,169.763,-415.105,908.9,-218.75,3132.5,-971.25,65.36,-9.12,-345.04
347039.8276,173.057,-414.19,910.242,420.0,3535.0,-1198.75,69.92,-4.56,-346.56
347039.8776,164.761,-414.739,908.9,-1006.25,2861.25,-892.5,65.36,-4.56,-335.92
347039.9276,167.201,-421.388,909.937,35.0,2931.25,-831.25,50.16,0.0,-351.12
347039.9776,162.443,-409.554,906.704,131.25,2485.0,-980.0,63.84,4.56,-343.52
347040.0276,166.225,-413.214,905.423,-708.75,2275.0,-673.75,62.32,-7.6,-343.52
347040.0776,170.434,-422.547,907.802,-140.0,2476.25,43.75,50.16,7.6,-334.4
347040.1276,171.654,-415.959,907.558,-866.25,2458.75,-332.5,65.36,-6.08,-351.12
347040.1776,174.826,-423.34,907.741,-516.25,2581.25,-568.75,39.52,3.04,-354.16
347040.2276,171.349,-421.266,908.351,796.25,2756.25,-542.5,51.68,1.52,-343.52
347040.2776,168.482,-405.894,913.841,-201.25,3088.75,-1417.5,68.4,-3.04,-337.44
347040.3276,170.556,-427.183,905.911,-1575.0,3193.75,-175.0,63.84,-18.24,-355.68
347040.3776,161.467,-416.752,911.157,-8.75,2257.5,122.5,56.24,-6.08,-328.32
347040.4277,170.678,-407.907,903.654,-1312.5,2292.5,-306.25,59.28,-13.68,-342.0
347040.4776,168.36,-432.612,907.619,-551.25,2625.0,-227.5,50.16,-6.08,-352.64
347040.5277,168.726,-420.29,908.595,-236.25,3447.5,-1198.75,54.72,13.68,-351.12
347040.5776,168.787,-430.294,909.937,87.5,2520.0,-945.0,76.0,-7.6,-332.88
347040.6276,166.713,-426.573,908.656,796.25,2738.75,-726.25,47.12,4.56,-337.44
347040.6776,166.53,-413.214,907.192,630.0,2817.5,-673.75,62.32,-15.2,-348.08
347040.7276,169.214,-418.277,905.24,-463.75,2371.25,-87.5,44.08,9.12,-346.56
347040.7776,169.763,-428.403,904.569,-446.25,2485.0,70.0,48.64,-10.64,-354.16
347040.8276,174.399,-425.109,908.9,61.25,2537.5,-603.75,50.16,-4.56,-331.36
347040.8776,173.484,-418.277,906.338,26.25,3001.25,-848.75,54.72,-12.16,-334.4
347040.9276,171.044,-417.24,907.07,656.25,3141.25,-708.75,59.28,4.56,-345.04
347040.9776,166.652,-423.523,908.839,-603.75,2695.0,-612.5,62.32,4.56,-343.52
347041.0276,172.264,-426.39,908.717,52.5,2887.5,-612.5,59.28,3.04,-338.96
347041.0776,167.75,-415.471,908.717,463.75,2598.75,-481.25,59.28,-7.6,-348.08
347041.1276,172.508,-411.689,902.129,-770.0,2826.25,-638.75,68.4,-4.56,-340.48
347041.1776,173.362,-421.327,906.887,210.0,3141.25,-708.75,54.72,-6.08,-345.04
347041.2276,166.286,-420.29,910.974,-875.0,2887.5,-805.0,48.64,-9.12,-340.48
347041.2776,170.983,-427.427,907.436,-428.75,3001.25,-595.0,56.24,-4.56,-337.44
347041.3276,165.92,-421.876,908.595,201.25,3010.0,-743.75,51.68,7.6,-340.48
347041.3776,163.541,-421.754,903.959,-35.0,2546.25,-1146.25,54.72,-3.04,-338.96
347041.4276,170.983,-423.401,907.07,-612.5,2362.5,-192.5,51.68,-7.6,-340.48
347041.4776,172.813,-423.279,905.484,8.75,2835.0,-665.0,54.72,4.56,-355.68
347041.5276,172.691,-416.386,905.179,-402.5,3141.25,-910.0,48.64,-12.16,-351.12
347041.5776,165.005,-421.144,907.192,691.25,2423.75,-1032.5,56.24,3.04,-329.84
347041.6276,169.58,-413.519,912.926,-463.75,2695.0,-945.0,53.2,-9.12,-329.84
347041.6776,169.641,-424.377,906.704,-551.25,3141.25,-52.5,56.24,-3.04,-342.0
347041.7276,166.774,-425.109,907.863,140.0,2345.0,-148.75,59.28,-3.04,-340.48
347041.7776,173.24,-421.022,906.155,-262.5,2546.25,-630.0,54.72,-3.04,-352.64
347041.8276,174.094,-424.438,900.543,735.0,2738.75,-385.0,48.64,-6.08,-332.88
347041.8776,170.251,-416.569,907.314,-358.75,3158.75,-1058.75,65.36,-7.6,-342.0
347041.9276,171.959,-425.475,904.569,-17.5,2975.0,-840.0,57.76,-13.68,-338.96
347041.9776,169.519,-421.144,905.606,-210.0,3263.75,-1216.25,59.28,-4.56,-345.04
347042.0276,165.188,-415.593,907.558,-402.5,2913.75,-1190.0,48.64,6.08,-335.92
347042.0776,169.824,-427.183,903.959,-700.0,2940.0,-183.75,57.76,-7.6,-334.4
347042.1276,167.811,-427.61,905.972,-332.5,3255.0,-96.25,69.92,-15.2,-337.44
347042.1776,170.861,-415.349,906.277,140.0,2870.0,-1391.25,44.08,1.52,-351.12
347042.2276,166.347,-424.499,903.288,-822.5,2835.0,-638.75,59.28,-4.56,-345.04
347042.2776,169.214,-422.181,911.462,-875.0,3053.75,-603.75,47.12,-10.64,-346.56
347042.3276,167.811,-430.416,902.312,122.5,2992.5,-892.5,60.8,-10.64,-340.48
347042.3778,165.554,-417.484,907.924,87.5,2520.0,-262.5,66.88,4.56,-346.56
347042.4276,175.192,-424.499,902.068,26.25,2546.25,-428.75,56.24,-4.56,-346.56
347042.4777,169.519,-427.061,902.434,78.75,2686.25,-796.25,57.76,1.52,-351.12
347042.5276,171.41,-419.619,908.717,52.5,3386.25,-1461.25,56.24,0.0,-331.36
347042.5776,169.946,-430.538,905.24,481.25,3106.25,-1102.5,62.32,-7.6,-345.04
347042.6276,167.262,-419.741,907.131,962.5,3281.25,-1128.75,54.72,1.52,-342.0
347042.6776,165.737,-414.19,902.434,96.25,2878.75,-1155.0,57.76,-6.08,-338.96
347042.7276,168.055,-423.889,904.813,-166.25,2835.0,-980.0,59.28,7.6,-348.08
347042.7776,167.079,-424.255,909.937,-236.25,2651.25,-332.5,60.8,-10.64,-345.04
347042.8276,173.728,-420.229,902.495,113.75,2870.0,-945.0,62.32,6.08,-340.48
347042.8776,166.469,-427.549,907.497,-227.5,3115.0,-805.0,68.4,4.56,-337.44
347042.9276,168.726,-413.275,912.56,-227.5,2712.5,-901.25,53.2,-10.64,-343.52
347042.9776,169.58,-426.512,902.312,-875.0,2843.75,-306.25,42.56,-7.6,-338.96
347043.0276,162.992,-422.608,904.142,446.25,2581.25,-52.5,48.64,4.56,-345.04
347043.0776,174.155,-425.048,902.251,218.75,2616.25,-595.0,42.56,13.68,-345.04
347043.1276,173.972,-419.802,902.556,341.25,2668.75,-630.0,48.64,-10.64,-346.56
347043.1776,172.325,-414.251,906.277,-883.75,3386.25,-1102.5,62.32,-7.6,-338.96
347043.2276,166.469,-427.549,907.497,-638.75,3325.0,-840.0,51.68,4.56,-331.36
347043.2776,166.408,-423.889,907.924,490.0,2957.5,-1408.75,50.16,3.04,-352.64
347043.3276,167.994,-421.571,905.423,-595.0,2765.0,-988.75,50.16,1.52,-342.0
347043.3776,168.848,-425.048,903.715,-70.0,2546.25,-945.0,50.16,-7.6,-345.04
347043.4276,174.033,-427.61,903.105,-743.75,2870.0,-245.0,54.72,1.52,-342.0
347043.4776,166.652,-433.1,904.996,175.0,2703.75,-332.5,51.68,-7.6,-338.96
347043.5276,169.641,-419.009,903.532,-341.25,2870.0,-770.0,50.16,-4.56,-338.96
347043.5776,172.935,-425.658,907.192,542.5,2756.25,-1015.0,54.72,-4.56,-337.44
347043.6276,170.129,-427.671,908.351,-516.25,2826.25,-726.25,63.84,-3.04,-346.56
347043.6776,166.835,-424.926,905.423,183.75,2870.0,-472.5,65.36,4.56,-337.44
347043.7276,169.153,-423.279,904.569,-323.75,2292.5,-183.75,54.72,-10.64,-331.36
347043.7776,172.813,-422.12,903.532,-420.0,2983.75,-245.0,44.08,-7.6,-346.56
347043.8276,175.07,-421.632,900.726,-350.0,2817.5,-1128.75,42.56,-4.56,-349.6
347043.8776,169.824,-430.05,907.741,-498.75,3298.75,-822.5,51.68,-3.04,-349.6
347043.9276,169.946,-432.246,906.277,568.75,3001.25,-953.75,45.6,1.52,-337.44
347043.9776,168.36,-424.011,908.778,551.25,3088.75,-1015.0,66.88,-13.68,-328.32
347044.0276,167.201,-418.216,903.959,-166.25,2765.0,-866.25,45.6,13.68,-346.56
347044.0776,164.395,-424.194,900.177,-70.0,2511.25,113.75,54.72,-6.08,-343.52
347044.1276,171.654,-427.854,905.789,-568.75,2450.0,-420.0,48.64,-12.16,-348.08
347044.1776,173.301,-424.499,905.789,122.5,3053.75,-962.5,48.64,-10.64,-340.48
347044.2276,165.676,-426.451,905.972,463.75,3027.5,-577.5,69.92,-6.08,-332.88
347044.2776,168.543,-418.826,907.375,-700.0,2861.25,-980.0,47.12,-3.04,-320.72
347044.3276,170.373,-430.904,904.325,-376.25,2511.25,-542.5,50.16,-3.04,-355.68
347044.3776,168.787,-424.316,905.057,472.5,2607.5,-490.0,62.32,-4.56,-342.0
347044.4279,177.266,-429.562,900.36,-455.0,2861.25,-148.75,63.84,-4.56,-349.6
347044.4776,170.007,-427.793,903.166,358.75,2948.75,-411.25,54.72,-16.72,-326.8
347044.5276,170.068,-411.75,907.619,-1251.25,3325.0,-1338.75,54.72,4.56,-340.48
347044.5776,171.959,-435.479,906.765,-997.5,3132.5,-148.75,50.16,-3.04,-335.92
347044.6276,166.713,-422.913,904.752,472.5,3237.5,-691.25,62.32,-7.6,-345.04
347044.6776,168.726,-423.279,906.46,70.0,2948.75,-1032.5,60.8,-6.08,-335.92
347044.7276,169.031,-421.876,901.702,-656.25,2826.25,78.75,51.68,-4.56,-340.48
347044.7776,169.519,-425.841,904.447,-376.25,2248.75,385.0,51.68,3.04,-323.76
347044.8276,171.105,-431.514,902.739,-253.75,2520.0,-96.25,65.36,3.04,-351.12
347044.8776,168.238,-423.828,900.848,-201.25,3430.0,43.75,62.32,-4.56,-345.04
347044.9276,162.687,-427.305,909.571,218.75,2248.75,-96.25,63.84,1.52,-338.96
347044.9776,176.351,-422.303,907.497,-1181.25,3027.5,-533.75,59.28,3.04,-334.4
347045.0276,164.883,-429.623,904.569,446.25,3123.75,323.75,48.64,10.64,-332.88
347045.0776,167.506,-432.917,905.606,883.75,2248.75,78.75,59.28,3.04,-337.44
347045.1276,175.68,-425.841,899.994,70.0,2423.75,-1041.25,48.64,-10.64,-346.56
347045.1776,174.704,-429.684,902.739,358.75,2660.0,-918.75,76.0,-3.04,-338.96
347045.2276,170.19,-417.057,908.046,-122.5,3552.5,-971.25,68.4,0.0,-328.32
347045.2776,167.14,-426.268,909.083,253.75,3167.5,-1050.0,51.68,10.64,-345.04
347045.3276,170.983,-422.73,903.288,-105.0,3001.25,-1172.5,50.16,7.6,-354.16
347045.3776,165.249,-421.571,902.861,673.75,3010.0,-560.0,62.32,9.12,-345.04
347045.4276,165.981,-424.316,901.946,323.75,2257.5,-568.75,59.28,-9.12,-346.56
347045.4776,174.948,-426.817,907.009,533.75,2878.75,-358.75,47.12,-7.6,-343.52
347045.5276,170.19,-422.181,902.556,796.25,2668.75,-1216.25,54.72,4.56,-338.96
347045.5776,166.347,-419.619,900.97,52.5,3115.0,-962.5,56.24,-9.12,-343.52
347045.6276,171.288,-413.275,910.303,516.25,2808.75,-1680.0,57.76,3.04,-332.88
347045.6776,167.506,-415.471,903.959,-1408.75,3351.25,-813.75,60.8,-3.04,-337.44
347045.7276,167.689,-429.074,904.813,-481.25,2931.25,253.75,42.56,-7.6,-335.92
347045.7776,171.532,-426.39,904.386,472.5,2108.75,-245.0,63.84,-4.56,-348.08
347045.8276,175.924,-423.218,902.373,0.0,2931.25,-603.75,44.08,3.04,-343.52
347045.8776,178.913,-425.78,904.386,437.5,3613.75,-1015.0,57.76,0.0,-338.96
347045.9276,166.774,-421.083,909.937,-96.25,3368.75,-1295.0,54.72,-6.08,-337.44
347045.9776,170.739,-417.972,905.728,-306.25,3150.0,-1032.5,45.6,3.04,-348.08
347046.0276,162.26,-417.911,907.741,-253.75,3062.5,-945.0,50.16,-6.08,-345.04
347046.0776,162.626,-427.244,906.033,-122.5,2616.25,-1155.0,57.76,-7.6,-340.48
347046.1276,170.922,-420.412,905.545,-61.25,2170.0,-52.5,51.68,0.0,-348.08
347046.1776,173.057,-419.802,905.057,-691.25,2467.5,-210.0,47.12,0.0,-342.0
347046.2276,175.009,-430.233,904.142,113.75,2773.75,-341.25,42.56,-6.08,-334.4
347046.2776,167.567,-418.948,903.044,-113.75,2660.0,-743.75,62.32,-4.56,-351.12
347046.3276,174.948,-414.19,908.168,-568.75,3001.25,-980.0,54.72,0.0,-348.08
347046.3776,170.251,-431.27,904.447,-1312.5,3141.25,-516.25,63.84,-6.08,-335.92
347046.4276,167.384,-431.026,908.595,280.0,3062.5,-551.25,74.48,-6.08,-323.76
347046.4777,172.203,-427.976,900.421,52.5,2196.25,-490.0,51.68,0.0,-340.48
347046.5276,173.728,-428.586,899.994,-656.25,2887.5,-210.0,62.32,4.56,-346.56
347046.5776,177.083,-420.534,903.898,542.5,3290.0,-1548.75,65.36,-10.64,-335.92
347046.6276,169.092,-427.244,905.789,-612.5,2782.5,-901.25,51.68,-13.68,-340.48
347046.6776,172.325,-426.573,904.569,35.0,2861.25,-752.5,53.2,0.0,-338.96
347046.7276,168.116,-425.17,905.301,-61.25,2896.25,-525.0,50.16,3.04,-342.0
347046.7776,168.604,-421.815,904.935,-542.5,2555.0,-866.25,56.24,-9.12,-348.08
347046.8276,174.704,-427.427,902.678,-778.75,2843.75,393.75,60.8,3.04,-345.04
347046.8776,171.349,-430.904,908.961,-43.75,2852.5,-936.25,56.24,0.0,-338.96
347046.9276,171.532,-425.902,905.179,437.5,2703.75,-1023.75,60.8,-9.12,-332.88
347046.9776,166.225,-430.721,901.397,131.25,3062.5,-183.75,59.28,-7.6,-340.48
347047.0276,171.166,-417.362,905.484,883.75,3176.25,-1531.25,60.8,1.52,-349.6
347047.0776,175.985,-430.05,903.288,-892.5,2467.5,-586.25,65.36,1.52,-340.48
347047.1276,166.591,-434.747,902.068,831.25,2677.5,166.25,57.76,4.56,-338.96
347047.1776,173.301,-417.545,903.349,8.75,2021.25,-682.5,59.28,-10.64,-334.4
347047.2276,173.606,-427.61,901.214,-358.75,2878.75,-927.5,57.76,-7.6,-343.52
347047.2776,175.619,-423.95,899.872,140.0,3482.5,-682.5,41.04,-4.56,-346.56
347047.3276,164.273,-430.416,906.033,-87.5,2616.25,-638.75,47.12,-7.6,-349.6
347047.3776,174.033,-431.087,903.227,8.75,3045.0,-918.75,57.76,4.56,-346.56
347047.4276,169.824,-429.013,902.861,918.75,3027.5,-971.25,53.2,-6.08,-346.56
347047.4776,171.044,-423.279,905.057,708.75,2563.75,-1015.0,38.0,1.52,-335.92
347047.5276,171.776,-413.946,903.349,-35.0,2668.75,-463.75,63.84,-12.16,-349.6
347047.5776,172.935,-432.368,901.214,-638.75,3193.75,-341.25,60.8,1.52,-331.36
347047.6276,171.898,-421.449,902.129,673.75,3132.5,-1443.75,60.8,0.0,-352.64
347047.6776,167.75,-423.706,907.802,17.5,2695.0,-857.5,48.64,0.0,-334.4
347047.7276,173.667,-419.253,908.412,-875.0,3281.25,-1102.5,53.2,3.04,-332.88
347047.7776,173.972,-433.893,901.092,-201.25,3018.75,-796.25,48.64,-4.56,-337.44
347047.8276,168.543,-427.671,902.861,157.5,2397.5,-166.25,54.72,3.04,-342.0
347047.8776,174.216,-424.316,902.617,-402.5,2432.5,-428.75,57.76,3.04,-338.96
347047.9276,172.752,-429.684,901.824,-87.5,3228.75,-735.0,66.88,-10.64,-331.36
347047.9776,171.776,-427.122,908.29,735.0,3570.0,-2117.5,54.72,0.0,-326.8
347048.0276,168.787,-427.793,907.863,603.75,3368.75,-1076.25,53.2,-3.04,-351.12
347048.0776,165.615,-419.68,903.715,-323.75,3045.0,-1050.0,51.68,1.52,-349.6
347048.1276,167.872,-427.305,905.728,866.25,3036.25,-1268.75,41.04,1.52,-346.56
347048.1776,167.689,-413.702,903.288,428.75,2441.25,-1540.0,63.84,-10.64,-329.84
347048.2276,177.998,-418.704,904.569,-883.75,3001.25,113.75,62.32,-6.08,-337.44
347048.2776,173.606,-431.697,902.8,-752.5,3263.75,201.25,47.12,-6.08,-337.44
347048.3276,171.715,-423.462,906.338,1767.5,3228.75,-2310.0,45.6,1.52,-346.56
347048.3776,169.641,-417.24,905.484,962.5,2826.25,-1697.5,53.2,-4.56,-346.56
347048.4278,172.508,-406.748,910.364,-525.0,3176.25,-411.25,59.28,-10.64,-349.6
347048.4776,168.238,-435.54,906.094,-61.25,3027.5,-358.75,48.64,-3.04,-354.16
347048.5277,167.14,-427.061,908.961,1531.25,2283.75,-656.25,54.72,-4.56,-337.44
347048.5776,177.205,-416.508,903.776,-367.5,2406.25,-463.75,62.32,0.0,-335.92
347048.6276,175.07,-422.486,903.654,-253.75,3010.0,-52.5,60.8,-9.12,-343.52
347048.6776,171.532,-416.386,905.667,-245.0,3500.0,-1128.75,56.24,-21.28,-335.92
347048.7276,167.872,-423.157,904.63,-455.0,2835.0,-743.75,56.24,-4.56,-351.12
