TimeStamp,ax,ay,az,gx,gy,gz,mx,my,mz
348930.3776,55.937,-8.479,1014.186,-1566.25,2362.5,0.0,74.48,-193.04,-498.56
348930.4276,51.362,-11.956,1017.419,463.75,2283.75,-673.75,76.0,-190.0,-504.64
348930.4776,50.996,-2.44,1016.87,446.25,2563.75,-1566.25,59.28,-183.92,-495.52
348930.5276,51.24,0.549,1016.992,148.75,2913.75,-2301.25,65.36,-205.2,-498.56
348930.5776,49.044,-2.928,1015.406,227.5,2555.0,-2441.25,79.04,-188.48,-494.0
348930.6276,45.628,6.466,1016.626,-1487.5,3622.5,-2966.25,77.52,-206.72,-500.08
348930.6776,44.042,-7.015,1013.332,-1793.75,3631.25,-2668.75,59.28,-188.48,-484.88
348930.7276,42.761,-8.296,1014.125,-2161.25,2905.0,-2327.5,47.12,-188.48,-492.48
348930.7776,47.58,-16.714,1015.223,-402.5,2318.75,-1986.25,82.08,-190.0,-504.64
348930.8276,50.935,-9.394,1016.992,-1566.25,2660.0,-796.25,66.88,-191.52,-498.56
348930.8776,49.654,-13.969,1014.918,-280.0,2590.0,-1041.25,59.28,-196.08,-481.84
348930.9276,47.153,-1.159,1013.149,253.75,1960.0,-1111.25,74.48,-197.6,-492.48
348930.9776,58.926,-10.431,1011.014,-1627.5,2493.75,463.75,63.84,-186.96,-483.36
348931.0276,57.767,-13.237,1015.711,-560.0,2590.0,901.25,65.36,-186.96,-489.44
348931.0776,62.952,-21.045,1017.053,-481.25,3692.5,971.25,63.84,-200.64,-494.0
348931.1276,59.109,-23.973,1017.297,341.25,4173.75,-288.75,66.88,-200.64,-497.04
348931.1776,52.765,-16.287,1016.809,1750.0,4410.0,-1697.5,77.52,-196.08,-484.88
348931.2276,45.323,-11.407,1011.868,2161.25,4383.75,-2196.25,65.36,-193.04,-486.4
348931.2776,43.066,-7.442,1012.478,1706.25,4480.0,-1933.75,65.36,-190.0,-498.56
348931.3276,39.711,-0.671,1015.04,822.5,3447.5,-1303.75,69.92,-196.08,-504.64
348931.3776,45.75,-1.525,1013.881,1128.75,3176.25,-1338.75,69.92,-194.56,-500.08
348931.4276,47.519,-4.026,1013.942,1408.75,3412.5,-1408.75,69.92,-196.08,-498.56
348931.4776,36.844,2.989,1014.308,262.5,3613.75,-1645.0,72.96,-202.16,-494.0
348931.5276,41.236,-5.246,1014.064,306.25,3421.25,-1181.25,66.88,-188.48,-497.04
348931.5776,40.199,-2.928,1016.809,-665.0,3158.75,-892.5,79.04,-190.0,-504.64
348931.6276,38.735,-9.577,1016.382,-490.0,2931.25,-393.75,69.92,-197.6,-507.68
348931.6776,35.746,-0.183,1018.212,892.5,2283.75,52.5,71.44,-199.12,-494.0
348931.7276,43.432,2.562,1012.112,-866.25,2257.5,481.25,60.8,-196.08,-490.96
348931.7776,45.384,-6.222,1014.369,630.0,1601.25,17.5,71.44,-186.96,-509.2
348931.8276,47.58,1.891,1013.637,-1592.5,2275.0,-236.25,74.48,-194.56,-486.4
348931.8776,47.885,-8.967,1016.199,-1610.0,2450.0,-498.75,80.56,-203.68,-489.44
348931.9276,45.262,-9.272,1015.711,-1408.75,2642.5,-603.75,63.84,-191.52,-495.52
348931.9776,45.689,-8.601,1014.552,-210.0,2310.0,-630.0,63.84,-194.56,-512.24
348932.0276,48.068,-5.368,1013.942,-393.75,1907.5,-131.25,80.56,-199.12,-492.48
348932.0776,51.24,-6.649,1013.576,-148.75,1828.75,367.5,69.92,-199.12,-481.84
348932.1276,52.216,-7.93,1014.857,-1058.75,1863.75,253.75,57.76,-182.4,-501.6
348932.1776,54.107,-16.104,1014.918,-341.25,2170.0,-210.0,77.52,-199.12,-490.96
348932.2276,52.216,-15.921,1014.186,-385.0,2870.0,-560.0,69.92,-196.08,-486.4
348932.2776,45.75,-16.47,1016.199,2126.25,2388.75,280.0,69.92,-186.96,-498.56
348932.3276,43.066,-8.723,1016.87,-463.75,1478.75,1645.0,79.04,-197.6,-500.08
348932.3776,52.155,-15.189,1012.661,778.75,962.5,2616.25,68.4,-199.12,-489.44
348932.4276,56.791,-7.503,1013.393,140.0,1181.25,2380.0,74.48,-194.56,-498.56
348932.4776,61.732,-11.163,1014.125,262.5,2030.0,2073.75,66.88,-190.0,-504.64
348932.5276,56.242,-6.039,1014.491,1120.0,2205.0,428.75,68.4,-188.48,-506.16
348932.5776,61.122,0.305,1011.868,1041.25,3202.5,-1093.75,74.48,-194.56,-489.44
348932.6276,53.741,-2.44,1016.504,-682.5,2975.0,-735.0,66.88,-183.92,-490.96
348932.6776,59.536,-10.248,1014.918,17.5,2817.5,-262.5,56.24,-191.52,-506.16
348932.7276,64.294,-11.346,1013.942,-306.25,3386.25,-175.0,79.04,-186.96,-503.12
348932.7776,59.78,-8.113,1016.992,1085.0,2765.0,-1198.75,65.36,-199.12,-490.96
348932.8276,53.192,-4.087,1015.894,297.5,3053.75,-980.0,62.32,-196.08,-492.48
348932.8778,54.229,-6.954,1014.43,568.75,2336.25,-743.75,76.0,-191.52,-494.0
348932.9276,61.366,-1.464,1011.38,901.25,2546.25,-253.75,68.4,-190.0,-495.52
348932.9777,59.109,1.281,1010.77,708.75,2581.25,-175.0,68.4,-185.44,-489.44
348933.0276,61.854,-3.05,1016.26,-26.25,2126.25,-656.25,62.32,-202.16,-512.24
348933.0777,67.832,-2.867,1014.735,61.25,3552.5,-857.5,56.24,-194.56,-494.0
348933.1276,61.671,0.122,1013.942,717.5,3771.25,-245.0,68.4,-196.08,-472.72
348933.1776,50.264,11.834,1016.199,-726.25,3010.0,-918.75,60.8,-196.08,-498.56
348933.2276,57.767,-6.466,1011.685,-1540.0,2642.5,-245.0,72.96,-194.56,-507.68
348933.2776,57.889,-3.904,1011.136,-1557.5,3158.75,498.75,80.56,-191.52,-497.04
348933.3276,63.318,-11.529,1014.552,-770.0,3867.5,1566.25,60.8,-185.44,-498.56
348933.3776,49.959,-7.503,1013.027,-630.0,4497.5,1662.5,59.28,-185.44,-497.04
348933.4276,46.299,-5.185,1014.552,-551.25,2695.0,385.0,79.04,-193.04,-497.04
348933.4776,52.948,-4.758,1015.65,-1163.75,1715.0,-568.75,56.24,-190.0,-486.4
348933.5276,64.05,-12.2,1015.955,-1531.25,2108.75,-621.25,72.96,-194.56,-489.44
348933.5776,61.183,-15.433,1018.517,-1233.75,3088.75,-752.5,56.24,-186.96,-503.12
348933.6276,53.985,-16.47,1018.456,-175.0,3255.0,-1583.75,59.28,-190.0,-486.4
348933.6776,38.674,1.159,1008.757,-1671.25,2397.5,-2406.25,83.6,-183.92,-484.88
348933.7276,45.445,-13.542,1013.942,-2117.5,691.25,-1120.0,63.84,-190.0,-471.2
348933.7776,61.793,-15.372,1013.393,-1513.75,26.25,-192.5,62.32,-180.88,-494.0
348933.8276,73.871,-17.629,1012.356,-796.25,857.5,595.0,69.92,-179.36,-500.08
348933.8776,73.017,-20.13,1014.613,-1435.0,2493.75,1268.75,56.24,-188.48,-492.48
348933.9276,68.442,-18.544,1013.759,-621.25,2607.5,218.75,57.76,-182.4,-494.0
348933.9776,68.015,-21.899,1014.796,-61.25,2520.0,-358.75,65.36,-183.92,-471.2
348934.0276,66.612,-11.285,1013.942,-341.25,3395.0,-918.75,69.92,-182.4,-486.4
348934.0776,61.305,-14.457,1014.857,-1697.5,3001.25,-577.5,69.92,-188.48,-477.28
348934.1276,65.27,-23.729,1012.661,-1365.0,2677.5,-218.75,59.28,-186.96,-503.12
348934.1776,68.015,-30.378,1014.857,-1452.5,2896.25,166.25,59.28,-188.48,-492.48
348934.2276,68.808,-30.317,1017.846,-210.0,3220.0,61.25,59.28,-179.36,-480.32
348934.2776,72.102,-24.705,1009.611,0.0,3316.25,-183.75,60.8,-185.44,-490.96
348934.3276,65.514,-19.215,1012.844,140.0,3955.0,-551.25,63.84,-185.44,-507.68
348934.3776,60.573,-19.154,1007.415,-122.5,3631.25,-875.0,89.68,-186.96,-490.96
348934.4276,67.222,-20.435,1016.809,-752.5,4086.25,-1111.25,68.4,-191.52,-487.92
348934.4776,58.438,-29.402,1015.04,-787.5,4506.25,-1513.75,62.32,-185.44,-484.88
348934.5276,54.9,-23.912,1011.929,-402.5,3018.75,-1863.75,85.12,-176.32,-490.96
348934.5776,52.948,-19.093,1012.661,-586.25,2371.25,-1793.75,68.4,-173.28,-484.88
348934.6276,64.782,-22.692,1014.43,-988.75,2476.25,-323.75,65.36,-179.36,-494.0
348934.6776,64.599,-24.949,1014.552,-1242.5,2931.25,-70.0,71.44,-186.96,-494.0
348934.7276,63.318,-29.463,1014.979,-1601.25,2581.25,-350.0,62.32,-180.88,-492.48
348934.7776,65.27,-34.465,1013.393,-735.0,2948.75,-1093.75,71.44,-182.4,-490.96
348934.8276,62.403,-34.282,1013.088,-455.0,3263.75,-1041.25,62.32,-177.84,-490.96
348934.8776,63.074,-23.058,1012.478,-577.5,3780.0,-1478.75,62.32,-186.96,-494.0
348934.9276,61.0,-29.036,1012.051,-1400.0,2931.25,-393.75,62.32,-188.48,-480.32
348934.9776,61.793,-35.563,1011.685,-997.5,3115.0,78.75,59.28,-182.4,-497.04
348935.0276,60.756,-36.966,1014.613,-603.75,2913.75,-393.75,60.8,-186.96,-490.96
348935.0776,61.183,-35.075,1015.833,-236.25,3185.0,-988.75,74.48,-186.96,-486.4
348935.1276,65.575,-32.025,1014.491,280.0,2686.25,-1198.75,60.8,-177.84,-487.92
348935.1776,63.379,-32.025,1014.491,-192.5,3482.5,-962.5,80.56,-183.92,-487.92
348935.2276,57.95,-29.585,1011.746,280.0,2870.0,-525.0,66.88,-182.4,-509.2
348935.2776,64.599,-31.476,1011.99,-1155.0,3185.0,-122.5,68.4,-182.4,-492.48
348935.3276,61.549,-35.502,1015.406,-796.25,3307.5,-621.25,53.2,-174.8,-483.36
348935.3776,58.194,-40.138,1016.748,-122.5,2730.0,-1330.0,60.8,-177.84,-498.56
348935.4276,58.804,-33.428,1011.258,-70.0,2756.25,-1190.0,68.4,-168.72,-504.64
348935.4776,58.499,-29.402,1012.295,-87.5,2537.5,-280.0,77.52,-177.84,-472.72
348935.5276,63.318,-38.918,1014.552,-796.25,2633.75,-131.25,63.84,-185.44,-481.84
348935.5776,62.891,-38.186,1016.626,-857.5,2493.75,-280.0,66.88,-174.8,-484.88
348935.6276,65.636,-40.809,1013.942,-665.0,2887.5,-1111.25,77.52,-179.36,-490.96
348935.6776,62.464,-33.062,1006.988,-595.0,3045.0,-1531.25,74.48,-177.84,-474.24
348935.7276,58.56,-25.254,1011.685,-2117.5,2362.5,-621.25,63.84,-188.48,-483.36
348935.7776,61.244,-44.042,1011.197,-4025.0,2537.5,603.75,65.36,-180.88,-507.68
348935.8276,65.392,-55.754,1017.602,-1295.0,2537.5,43.75,71.44,-170.24,-487.92
348935.8776,65.575,-56.791,1016.382,-385.0,2275.0,-761.25,47.12,-190.0,-494.0
348935.9276,68.198,-48.373,1015.467,183.75,2773.75,-665.0,69.92,-173.28,-475.76
348935.9776,64.904,-45.445,1012.295,175.0,3176.25,-822.5,68.4,-176.32,-477.28
348936.0276,64.66,-43.188,1010.648,-297.5,3080.0,-1338.75,77.52,-183.92,-497.04
348936.0776,63.623,-41.175,1011.685,-700.0,2782.5,-1032.5,60.8,-182.4,-500.08
348936.1276,69.113,-48.678,1013.454,-1583.75,3193.75,-665.0,60.8,-173.28,-487.92
348936.1776,66.673,-50.02,1015.162,-682.5,3342.5,-892.5,72.96,-174.8,-480.32
348936.2276,54.046,-46.055,1014.369,140.0,3272.5,-1198.75,63.84,-173.28,-480.32
348936.2776,56.669,-28.548,1007.903,-2178.75,1330.0,595.0,63.84,-174.8,-478.8
348936.3277,63.562,-42.7,1012.173,-2572.5,1391.25,918.75,59.28,-177.84,-490.96
348936.3776,71.187,-55.327,1014.125,-2695.0,1286.25,201.25,72.96,-173.28,-492.48
348936.4277,74.359,-63.318,1014.369,-1566.25,1916.25,-148.75,66.88,-170.24,-468.16
348936.4776,73.322,-62.586,1015.528,-323.75,2493.75,-516.25,63.84,-168.72,-484.88
348936.5276,75.823,-61.488,1013.088,166.25,2493.75,-717.5,60.8,-165.68,-497.04
348936.5776,75.091,-57.706,1013.088,4165.0,3150.0,-192.5,82.08,-171.76,-475.76
348936.6276,61.427,-45.567,1015.345,1286.25,4567.5,70.0,60.8,-177.84,-481.84
348936.6776,60.329,-49.166,1010.038,96.25,3158.75,-262.5,59.28,-170.24,-495.52
348936.7276,72.041,-51.911,1010.587,-700.0,2633.75,-1006.25,66.88,-171.76,-472.72
348936.7776,71.431,-63.074,1012.417,-393.75,3508.75,-1207.5,71.44,-173.28,-474.24
348936.8276,61.915,-47.702,1014.003,385.0,3473.75,-1505.0,59.28,-155.04,-501.6
348936.8776,68.381,-44.408,1011.258,1356.25,2826.25,-1190.0,71.44,-174.8,-490.96
348936.9276,67.527,-45.933,1008.94,245.0,3307.5,-525.0,62.32,-174.8,-487.92
348936.9776,70.455,-45.14,1015.406,2266.25,2887.5,612.5,62.32,-173.28,-494.0
348937.0276,72.102,-46.36,1013.393,1233.75,3736.25,78.75,72.96,-167.2,-500.08
348937.0776,64.172,-52.643,1016.199,2170.0,4182.5,-857.5,72.96,-180.88,-483.36
348937.1276,58.438,-39.528,1014.918,1890.0,4550.0,-411.25,71.44,-186.96,-480.32
348937.1776,53.619,-40.321,1009.184,1137.5,3981.25,-752.5,66.88,-173.28,-489.44
348937.2276,60.024,-29.707,1007.537,-603.75,2983.75,-857.5,56.24,-170.24,-501.6
348937.2776,57.584,-44.103,1011.197,673.75,2800.0,-1435.0,71.44,-183.92,-486.4
348937.3276,64.355,-33.855,1012.966,-752.5,1741.25,-1006.25,65.36,-171.76,-480.32
348937.3776,73.566,-46.055,1015.589,-656.25,2843.75,-542.5,60.8,-174.8,-500.08
348937.4276,67.405,-41.48,1009.428,-1085.0,3473.75,-490.0,69.92,-162.64,-489.44
348937.4776,65.209,-36.295,1014.552,568.75,2992.5,-1557.5,69.92,-180.88,-469.68
348937.5276,59.231,-35.441,1014.491,-288.75,2887.5,-1251.25,66.88,-180.88,-495.52
348937.5776,64.416,-41.175,1009.062,-866.25,2458.75,-288.75,60.8,-174.8,-498.56
348937.6276,66.551,-48.556,1013.027,-1093.75,2616.25,-271.25,65.36,-186.96,-487.92
348937.6776,64.66,-45.689,1011.38,-463.75,2852.5,-717.5,50.16,-170.24,-486.4
348937.7277,68.076,-41.602,1011.197,-612.5,3193.75,-411.25,68.4,-179.36,-487.92
348937.7776,64.843,-43.005,1013.271,-175.0,3657.5,-638.75,72.96,-162.64,-498.56
348937.8276,62.098,-38.613,1021.14,-183.75,2940.0,-1793.75,65.36,-177.84,-503.12
348937.8776,75.64,-56.303,1018.334,-1846.25,3508.75,-96.25,66.88,-174.8,-497.04
348937.9276,74.786,-67.771,1015.528,866.25,4838.75,-201.25,74.48,-171.76,-489.44
348937.9776,56.12,-62.281,1006.195,3893.75,4383.75,-1855.0,71.44,-177.84,-489.44
348938.0276,52.582,-43.554,1002.474,5083.75,3447.5,-2318.75,74.48,-173.28,-486.4
348938.0776,56.364,-21.777,1010.587,3010.0,3561.25,-1417.5,72.96,-171.76,-495.52
348938.1276,57.462,-19.398,1015.345,1198.75,3342.5,-455.0,60.8,-176.32,-507.68
348938.1776,54.778,-25.681,1015.833,35.0,3421.25,-507.5,68.4,-188.48,-481.84
348938.2276,57.889,-30.805,1010.953,752.5,2843.75,-376.25,68.4,-180.88,-480.32
348938.2776,59.719,-24.522,1012.783,481.25,3526.25,-551.25,68.4,-171.76,-494.0
348938.3276,58.621,-24.644,1012.844,-393.75,3185.0,-927.5,62.32,-183.92,-498.56
348938.3776,61.427,-23.607,1012.783,-17.5,3447.5,-1225.0,65.36,-174.8,-489.44
348938.4276,48.8,-25.376,1010.587,-2196.25,3377.5,-1015.0,71.44,-194.56,-490.96
348938.4776,55.144,-36.478,1008.452,-2178.75,2581.25,-883.75,71.44,-167.2,-500.08
348938.5276,58.011,-42.944,1012.417,-2913.75,2310.0,-752.5,66.88,-183.92,-494.0
348938.5776,61.427,-45.933,1016.626,-1750.0,2423.75,-612.5,63.84,-180.88,-498.56
348938.6276,59.109,-50.752,1019.798,-1758.75,2730.0,-516.25,66.88,-170.24,-501.6
348938.6776,62.647,-48.617,1011.685,498.75,3036.25,-778.75,59.28,-182.4,-487.92
348938.7276,62.647,-42.944,1011.258,122.5,2721.25,-857.5,60.8,-177.84,-474.24
348938.7776,61.854,-41.663,1015.406,-315.0,2992.5,-1181.25,71.44,-183.92,-501.6
348938.8276,62.403,-44.957,1018.822,603.75,2922.5,-1137.5,66.88,-171.76,-501.6
348938.8776,67.466,-51.728,1017.968,2056.25,3377.5,-1006.25,77.52,-185.44,-484.88
348938.9276,57.95,-33.733,1009.306,2476.25,3403.75,-1566.25,71.44,-173.28,-495.52
348938.9776,59.78,-26.352,1008.757,892.5,3762.5,-1435.0,65.36,-176.32,-484.88
348939.0276,58.377,-28.792,1011.258,-717.5,3972.5,-971.25,68.4,-174.8,-490.96
348939.0776,53.07,-34.526,1015.284,-481.25,3211.25,-306.25,69.92,-182.4,-487.92
348939.1276,56.73,-33.001,1017.053,-1321.25,3123.75,-665.0,68.4,-176.32,-490.96
348939.1776,60.085,-41.968,1013.637,-717.5,2616.25,-997.5,71.44,-179.36,-497.04
348939.2276,61.976,-42.334,1009.733,-481.25,2983.75,-831.25,69.92,-173.28,-477.28
348939.2776,61.061,-37.332,1012.295,297.5,4165.0,-1268.75,63.84,-171.76,-489.44
348939.3276,49.227,-41.541,1017.968,-1015.0,3535.0,-1163.75,65.36,-176.32,-495.52
348939.3776,50.386,-45.75,1010.343,-70.0,3482.5,-1671.25,74.48,-176.32,-490.96
348939.4276,52.033,-49.105,1012.478,-770.0,2905.0,-1365.0,69.92,-171.76,-487.92
348939.4776,47.275,-51.728,1017.114,140.0,2975.0,-1076.25,68.4,-165.68,-494.0
348939.5276,53.314,-47.336,1015.406,997.5,2266.25,-735.0,66.88,-190.0,-490.96
348939.5776,57.584,-36.173,1012.356,393.75,2625.0,-367.5,65.36,-183.92,-486.4
348939.6276,56.425,-38.308,1011.807,271.25,2476.25,-376.25,65.36,-179.36,-478.8
348939.6778,60.939,-41.663,1014.491,96.25,2336.25,-297.5,68.4,-173.28,-492.48
348939.7276,63.379,-41.419,1013.698,-87.5,3010.0,-402.5,63.84,-177.84,-483.36
348939.7777,56.486,-39.65,1012.844,638.75,2896.25,-1050.0,68.4,-170.24,-483.36
348939.8276,56.364,-35.868,1011.99,271.25,2458.75,-1408.75,68.4,-177.84,-492.48
348939.8776,55.876,-36.844,1009.672,-210.0,2677.5,-770.0,57.76,-173.28,-487.92
348939.9276,55.083,-36.295,1014.308,-586.25,2555.0,-26.25,69.92,-182.4,-486.4
348939.9776,58.438,-41.968,1012.661,-770.0,2695.0,-367.5,53.2,-174.8,-480.32
348940.0276,60.939,-45.323,1016.321,-525.0,2511.25,-315.0,60.8,-173.28,-497.04
348940.0776,64.233,-44.835,1013.332,-393.75,2756.25,-603.75,79.04,-179.36,-487.92
348940.1276,62.403,-46.97,1012.844,-140.0,3430.0,-971.25,59.28,-173.28,-484.88
348940.1776,61.915,-38.918,1014.735,901.25,3281.25,-1050.0,69.92,-185.44,-498.56
348940.2276,55.388,-35.99,1012.417,-411.25,3543.75,-1172.5,76.0,-179.36,-498.56
348940.2776,60.512,-43.981,1008.025,-350.0,2966.25,-647.5,68.4,-177.84,-478.8
348940.3276,58.316,-45.14,1012.661,-673.75,2870.0,-323.75,69.92,-180.88,-484.88
348940.3776,57.828,-46.177,1015.711,26.25,2887.5,-192.5,59.28,-185.44,-490.96
348940.4276,53.314,-43.737,1015.223,-770.0,2870.0,-358.75,69.92,-177.84,-495.52
348940.4776,58.499,-43.31,1012.051,96.25,2808.75,-525.0,62.32,-179.36,-487.92
348940.5276,56.242,-41.114,1013.881,-271.25,2817.5,-665.0,69.92,-171.76,-486.4
348940.5776,58.804,-41.236,1013.271,-1111.25,2633.75,-210.0,69.92,-176.32,-489.44
348940.6276,60.695,-49.959,1013.393,-1207.5,2896.25,-262.5,79.04,-171.76,-483.36
348940.6776,57.401,-49.044,1012.783,-297.5,3298.75,-813.75,71.44,-185.44,-506.16
348940.7276,54.351,-47.153,1012.478,148.75,2738.75,-1198.75,54.72,-180.88,-484.88
348940.7776,57.401,-40.443,1011.258,-332.5,1986.25,-656.25,56.24,-188.48,-503.12
348940.8276,59.902,-43.249,1013.576,-962.5,2371.25,78.75,76.0,-182.4,-477.28
348940.8776,60.085,-47.763,1013.576,-612.5,2380.0,157.5,57.76,-177.84,-469.68
348940.9276,60.939,-50.264,1016.138,-498.75,2187.5,-691.25,69.92,-176.32,-494.0
348940.9776,60.512,-48.861,1016.26,-533.75,2056.25,-787.5,74.48,-183.92,-497.04
348941.0276,64.172,-54.229,1014.125,-463.75,2152.5,-463.75,62.32,-174.8,-490.96
348941.0776,67.161,-52.765,1009.977,113.75,2730.0,-78.75,62.32,-170.24,-490.96
348941.1276,64.233,-41.053,1013.271,551.25,3071.25,-630.0,63.84,-174.8,-494.0
348941.1776,63.074,-48.739,1011.746,-936.25,2502.5,-700.0,69.92,-176.32,-475.76
348941.2276,62.952,-49.654,1007.842,-455.0,2555.0,-498.75,60.8,-174.8,-494.0
348941.2776,64.111,-59.536,1014.918,-778.75,2721.25,-560.0,50.16,-173.28,-506.16
348941.3276,62.525,-56.364,1016.87,166.25,2896.25,-708.75,66.88,-165.68,-501.6
348941.3776,60.634,-51.118,1011.502,647.5,2126.25,-691.25,54.72,-179.36,-477.28
348941.4276,64.782,-46.604,1010.526,735.0,2808.75,-848.75,56.24,-185.44,-492.48
348941.4776,61.671,-41.602,1011.197,43.75,2677.5,-953.75,57.76,-176.32,-475.76
348941.5276,67.039,-47.58,1012.295,-831.25,2782.5,-455.0,63.84,-168.72,-483.36
348941.5776,68.93,-53.253,1014.003,-883.75,3071.25,-376.25,76.0,-167.2,-495.52
348941.6276,62.952,-52.094,1013.82,-8.75,3185.0,-1085.0,76.0,-174.8,-498.56
348941.6776,62.83,-49.654,1009.977,638.75,2948.75,-1417.5,74.48,-188.48,-490.96
348941.7276,63.135,-46.116,1010.465,656.25,2826.25,-883.75,66.88,-162.64,-489.44
348941.7776,65.575,-48.251,1011.563,-420.0,2738.75,-420.0,65.36,-173.28,-478.8
348941.8276,66.368,-51.911,1015.406,-551.25,2651.25,-323.75,57.76,-174.8,-501.6
348941.8776,64.66,-52.46,1012.478,-26.25,2800.0,-708.75,74.48,-177.84,-489.44
348941.9276,68.137,-48.8,1012.722,-988.75,2633.75,-770.0,53.2,-176.32,-492.48
348941.9776,68.625,-54.534,1013.332,-700.0,3001.25,-1155.0,56.24,-171.76,-481.84
348942.0276,66.856,-52.887,1011.441,-568.75,3036.25,-910.0,71.44,-174.8,-487.92
348942.0776,68.259,-53.802,1012.783,402.5,2765.0,-831.25,66.88,-174.8,-481.84
348942.1276,60.512,-48.739,1012.722,-910.0,3027.5,-542.5,50.16,-179.36,-494.0
348942.1776,66.429,-56.669,1008.818,-525.0,2528.75,-87.5,56.24,-165.68,-500.08
348942.2276,66.795,-60.634,1011.014,-1023.75,2983.75,-166.25,65.36,-167.2,-469.68
348942.2776,68.198,-59.536,1014.979,-52.5,3211.25,-700.0,66.88,-170.24,-478.8
348942.3276,62.22,-55.571,1013.332,253.75,3141.25,-936.25,65.36,-185.44,-489.44
348942.3776,67.71,-54.473,1010.221,840.0,3237.5,-945.0,82.08,-168.72,-494.0
348942.4276,61.244,-46.482,1012.722,113.75,3027.5,-1128.75,62.32,-167.2,-477.28
348942.4776,66.063,-51.301,1013.149,-778.75,2922.5,-603.75,60.8,-167.2,-469.68
348942.5276,65.636,-59.963,1014.735,17.5,3167.5,-647.5,68.4,-165.68,-494.0
348942.5776,59.658,-56.242,1014.491,358.75,3001.25,-971.25,62.32,-170.24,-486.4
348942.6276,67.161,-52.948,1007.232,577.5,1155.0,-2913.75,71.44,-171.76,-477.28
348942.6776,74.176,-50.203,1007.598,428.75,2100.0,-1627.5,56.24,-158.08,-486.4
348942.7276,70.455,-50.325,1012.234,245.0,3561.25,472.5,72.96,-167.2,-475.76
348942.7776,64.416,-53.131,1013.576,78.75,2703.75,-210.0,65.36,-170.24,-494.0
348942.8276,72.163,-52.46,1007.537,-280.0,2747.5,-700.0,65.36,-171.76,-486.4
348942.8776,68.198,-50.081,1011.136,166.25,3211.25,-761.25,63.84,-173.28,-487.92
348942.9276,65.758,-53.07,1012.661,-315.0,3307.5,-682.5,71.44,-173.28,-478.8
348942.9776,64.538,-55.083,1011.563,0.0,3045.0,-796.25,60.8,-180.88,-480.32
348943.0276,69.662,-49.349,1009.55,778.75,3036.25,-848.75,63.84,-176.32,-489.44
348943.0776,67.039,-47.397,1012.295,813.75,3097.5,-682.5,68.4,-170.24,-504.64
348943.1277,67.039,-56.364,1009.611,-533.75,3517.5,647.5,59.28,-168.72,-498.56
348943.1776,61.305,-50.691,1010.404,-463.75,2808.75,-87.5,48.64,-179.36,-483.36
348943.2278,70.455,-59.109,1013.332,-227.5,3036.25,-822.5,63.84,-180.88,-486.4
348943.2776,64.721,-55.388,1018.029,227.5,3001.25,-1330.0,68.4,-168.72,-481.84
348943.3276,71.553,-54.595,1011.502,726.25,2940.0,-1058.75,53.2,-176.32,-486.4
348943.3776,64.965,-52.887,1013.332,385.0,3027.5,-1260.0,50.16,-179.36,-494.0
348943.4276,65.026,-52.521,1014.064,358.75,2555.0,-1505.0,79.04,-179.36,-489.44
348943.4776,69.967,-55.022,1016.382,577.5,3045.0,-1452.5,76.0,-176.32,-486.4
348943.5276,69.052,-56.059,1011.807,603.75,3736.25,-1128.75,60.8,-171.76,-503.12
348943.5776,59.048,-45.75,1010.709,1102.5,2870.0,-1758.75,65.36,-165.68,-494.0
348943.6276,66.978,-45.323,1010.221,26.25,2686.25,-962.5,71.44,-171.76,-489.44
348943.6776,62.952,-41.175,1013.393,-691.25,2467.5,-1006.25,63.84,-170.24,-478.8
348943.7276,73.81,-54.534,1014.552,-673.75,2205.0,-717.5,62.32,-173.28,-484.88
348943.7776,73.261,-53.07,1012.112,-350.0,2616.25,-533.75,68.4,-177.84,-498.56
348943.8276,66.185,-51.728,1012.905,96.25,2572.5,-770.0,71.44,-173.28,-475.76
348943.8776,74.115,-50.996,1011.258,8.75,3018.75,-1093.75,57.76,-179.36,-492.48
348943.9276,69.54,-52.094,1010.587,-183.75,3491.25,-822.5,60.8,-171.76,-489.44
348943.9776,70.455,-48.739,1011.258,411.25,3333.75,-691.25,57.76,-176.32,-471.2
348944.0276,63.745,-43.676,1012.722,-892.5,3675.0,-1321.25,53.2,-176.32,-498.56
348944.0776,68.869,-62.586,1009.733,-297.5,2940.0,-1251.25,66.88,-171.76,-490.96
348944.1277,71.431,-62.769,1013.515,-656.25,3386.25,-315.0,72.96,-177.84,-494.0
348944.1776,66.551,-59.902,1014.979,787.5,3473.75,-253.75,66.88,-171.76,-484.88
348944.2276,64.599,-50.325,1014.308,901.25,3141.25,-831.25,59.28,-173.28,-477.28
348944.2776,68.686,-52.826,1012.295,1172.5,3001.25,-787.5,65.36,-183.92,-501.6
348944.3276,63.318,-40.931,1012.295,420.0,3158.75,-840.0,76.0,-177.84,-483.36
348944.3776,65.392,-47.641,1013.515,-1093.75,2773.75,-323.75,69.92,-179.36,-475.76
348944.4276,71.431,-54.107,1012.478,-778.75,3071.25,-306.25,57.76,-171.76,-475.76
348944.4776,66.246,-50.02,1014.064,-227.5,3351.25,-446.25,72.96,-168.72,-472.72
348944.5276,65.392,-52.338,1013.454,-315.0,3351.25,-778.75,71.44,-176.32,-495.52
348944.5776,61.854,-50.63,1011.319,-87.5,2870.0,-927.5,65.36,-174.8,-489.44
348944.6276,68.808,-50.813,1012.905,-367.5,2747.5,-306.25,66.88,-176.32,-489.44
348944.6776,74.176,-58.072,1011.99,-700.0,3473.75,-437.5,69.92,-177.84,-489.44
348944.7276,69.967,-51.24,1011.929,-157.5,4383.75,-1478.75,60.8,-177.84,-498.56
348944.7776,60.939,-56.059,1013.576,-262.5,3876.25,-2415.0,62.32,-171.76,-494.0
348944.8276,66.612,-58.743,1015.833,490.0,2948.75,-2791.25,60.8,-177.84,-495.52
348944.8776,67.527,-55.998,1014.247,1225.0,3395.0,-726.25,69.92,-179.36,-486.4
348944.9276,63.806,-46.116,1012.051,481.25,4042.5,-236.25,57.76,-179.36,-490.96
348944.9776,58.011,-52.338,1014.674,665.0,2800.0,-297.5,66.88,-171.76,-486.4
348945.0276,63.013,-46.36,1008.391,-70.0,3010.0,-481.25,74.48,-173.28,-484.88
348945.0776,63.074,-56.425,1013.21,-26.25,3211.25,-516.25,51.68,-177.84,-500.08
348945.1276,61.793,-55.998,1013.027,743.75,3106.25,-831.25,63.84,-170.24,-495.52
348945.1776,61.427,-50.02,1011.136,735.0,2563.75,-787.5,66.88,-176.32,-495.52
348945.2276,62.647,-43.737,1011.624,87.5,2870.0,-446.25,51.68,-158.08,-471.2
348945.2776,59.292,-46.116,1013.149,-306.25,2642.5,-350.0,66.88,-180.88,-487.92
348945.3276,64.294,-52.521,1014.003,-840.0,2240.0,131.25,59.28,-173.28,-504.64
348945.3776,65.209,-58.072,1016.504,-122.5,2835.0,-148.75,68.4,-182.4,-489.44
348945.4276,62.22,-55.327,1014.857,577.5,2458.75,-245.0,63.84,-186.96,-487.92
348945.4776,69.967,-47.702,1009.855,323.75,2458.75,-630.0,59.28,-171.76,-484.88
348945.5276,68.198,-50.752,1011.136,175.0,2966.25,-315.0,79.04,-176.32,-498.56
348945.5776,67.527,-49.715,1010.465,-481.25,2808.75,17.5,66.88,-174.8,-481.84
348945.6276,68.625,-54.168,1011.929,-52.5,2703.75,-673.75,65.36,-177.84,-492.48
348945.6776,68.198,-51.789,1012.051,-813.75,3036.25,-682.5,59.28,-173.28,-501.6
348945.7276,65.697,-55.693,1016.138,-148.75,3342.5,-866.25,66.88,-177.84,-487.92
348945.7776,63.44,-52.094,1009.062,-288.75,3316.25,-848.75,69.92,-177.84,-489.44
348945.8276,66.246,-43.554,1012.905,218.75,3526.25,-1443.75,62.32,-174.8,-483.36
348945.8776,63.989,-43.676,1011.868,-1662.5,3132.5,-577.5,66.88,-185.44,-489.44
348945.9276,64.843,-56.486,1013.088,-463.75,4060.0,-490.0,60.8,-176.32,-487.92
348945.9776,59.17,-58.499,1016.87,341.25,2878.75,-1347.5,60.8,-173.28,-480.32
348946.0276,66.917,-55.205,1012.966,437.5,3036.25,-1487.5,65.36,-183.92,-495.52
348946.0776,63.684,-51.606,1011.441,472.5,3237.5,-848.75,69.92,-177.84,-498.56
348946.1276,74.847,-63.867,1010.526,848.75,4287.5,-420.0,80.56,-168.72,-487.92
348946.1776,56.303,-56.547,1017.358,1540.0,5293.75,297.5,63.84,-171.76,-486.4
348946.2276,49.166,-47.946,1014.613,1338.75,3841.25,-708.75,72.96,-176.32,-503.12
348946.2776,52.399,-52.765,1011.38,2030.0,2931.25,-1916.25,69.92,-176.32,-495.52
348946.3276,58.499,-41.663,1009.489,1540.0,3018.75,-1653.75,68.4,-171.76,-487.92
348946.3776,55.693,-35.38,1010.648,1050.0,2940.0,-1260.0,60.8,-171.76,-487.92
348946.4276,56.486,-36.234,1010.831,-1050.0,2940.0,-70.0,71.44,-170.24,-497.04
348946.4778,57.401,-42.334,1008.025,-1636.25,2257.5,332.5,68.4,-182.4,-489.44
348946.5276,62.464,-52.399,1013.759,-472.5,3727.5,-603.75,62.32,-188.48,-472.72
348946.5777,57.279,-49.837,1021.506,-927.5,2651.25,-980.0,56.24,-174.8,-506.16
348946.6276,65.514,-53.802,1017.358,-61.25,2528.75,-516.25,77.52,-174.8,-495.52
348946.6777,62.586,-51.972,1012.234,262.5,2791.25,472.5,66.88,-177.84,-481.84
348946.7276,60.207,-44.652,1011.99,367.5,3473.75,70.0,66.88,-182.4,-478.8
348946.7776,53.07,-47.946,1009.977,-1076.25,2388.75,-595.0,74.48,-171.76,-498.56
348946.8276,57.34,-50.935,1011.624,-1032.5,2222.5,-1373.75,76.0,-176.32,-487.92
348946.8776,65.575,-59.719,1014.735,-1767.5,2222.5,-1041.25,83.6,-190.0,-478.8
348946.9276,62.708,-59.902,1014.369,52.5,3141.25,-288.75,60.8,-180.88,-497.04
348946.9776,59.597,-55.571,1014.918,-385.0,2266.25,227.5,59.28,-183.92,-472.72
348947.0276,60.39,-49.837,1011.136,-385.0,2817.5,-393.75,76.0,-179.36,-481.84
348947.0776,63.562,-48.861,1009.916,-210.0,2476.25,-96.25,65.36,-176.32,-475.76
348947.1276,63.867,-51.057,1012.234,-323.75,2686.25,-498.75,62.32,-168.72,-489.44
348947.1776,65.941,-57.401,1010.892,-236.25,3167.5,-1041.25,59.28,-170.24,-490.96
348947.2276,61.305,-54.229,1014.613,323.75,3290.0,-1452.5,71.44,-176.32,-478.8
348947.2776,57.706,-49.41,1011.258,490.0,3115.0,-2135.0,48.64,-167.2,-490.96
348947.3276,63.501,-50.264,1012.905,-630.0,2887.5,-1102.5,60.8,-168.72,-498.56
348947.3776,61.061,-51.667,1009.245,-805.0,2948.75,-262.5,76.0,-170.24,-489.44
348947.4276,61.183,-51.423,1014.186,-1636.25,2835.0,-175.0,63.84,-180.88,-497.04
348947.4776,65.636,-59.902,1013.393,-1968.75,2677.5,-735.0,71.44,-165.68,-486.4
348947.5276,63.928,-62.037,1012.417,-577.5,3228.75,-1443.75,68.4,-173.28,-498.56
348947.5776,64.965,-61.427,1011.99,638.75,3508.75,-1295.0,72.96,-171.76,-495.52
348947.6276,54.534,-55.266,1015.528,481.25,3403.75,-988.75,69.92,-176.32,-494.0
348947.6776,59.963,-57.096,1008.818,113.75,2940.0,-358.75,62.32,-168.72,-481.84
348947.7276,59.231,-53.07,1011.746,-367.5,3237.5,-516.25,66.88,-171.76,-480.32
348947.7776,61.244,-58.865,1012.783,87.5,3027.5,-866.25,66.88,-176.32,-498.56
348947.8276,58.926,-52.826,1013.637,875.0,2870.0,-1102.5,79.04,-182.4,-495.52
348947.8776,64.172,-57.34,1010.648,463.75,2931.25,-516.25,83.6,-168.72,-497.04
348947.9276,58.56,-50.264,1010.343,402.5,2651.25,-682.5,60.8,-176.32,-501.6
348947.9776,66.429,-53.436,1011.38,-612.5,2782.5,-446.25,69.92,-162.64,-486.4
348948.0276,60.878,-57.34,1016.199,-288.75,3517.5,-630.0,60.8,-167.2,-498.56
348948.0776,57.34,-58.072,1015.833,-323.75,3220.0,-962.5,83.6,-173.28,-486.4
348948.1276,59.841,-55.876,1010.404,455.0,2563.75,-1015.0,65.36,-173.28,-497.04
348948.1776,61.61,-51.301,1008.391,-376.25,2747.5,507.5,69.92,-170.24,-486.4
348948.2276,64.416,-53.985,1010.587,-901.25,2590.0,437.5,65.36,-180.88,-477.28
348948.2776,67.1,-59.475,1012.539,-306.25,2555.0,-533.75,59.28,-179.36,-490.96
348948.3276,68.015,-57.767,1014.552,-568.75,2695.0,-770.0,51.68,-173.28,-486.4
348948.3776,62.525,-61.244,1012.783,341.25,2966.25,-980.0,63.84,-170.24,-478.8
348948.4276,68.503,-55.998,1012.966,358.75,3290.0,26.25,72.96,-177.84,-483.36
348948.4776,64.416,-55.998,1009.733,192.5,3885.0,358.75,72.96,-170.24,-490.96
348948.5276,58.621,-49.654,1014.003,52.5,3753.75,-1058.75,66.88,-168.72,-489.44
348948.5776,58.377,-54.9,1013.088,-805.0,2808.75,-918.75,69.92,-170.24,-481.84
348948.6276,60.39,-58.072,1010.038,-1015.0,2948.75,-980.0,63.84,-180.88,-492.48
348948.6776,62.281,-63.318,1015.833,43.75,3045.0,43.75,63.84,-173.28,-489.44
348948.7276,74.115,-58.621,1012.661,-78.75,3631.25,1461.25,74.48,-170.24,-492.48
348948.7776,53.375,-56.73,1012.051,472.5,4156.25,70.0,76.0,-176.32,-480.32
348948.8276,57.096,-52.887,1013.149,-17.5,3272.5,-1172.5,62.32,-156.56,-495.52
348948.8776,55.266,-57.706,1012.478,-350.0,3228.75,-1513.75,60.8,-170.24,-504.64
348948.9276,55.51,-62.769,1014.674,-883.75,3500.0,-831.25,66.88,-171.76,-477.28
348948.9776,56.486,-62.22,1014.674,26.25,3447.5,-542.5,62.32,-173.28,-480.32
348949.0276,54.412,-61.0,1014.918,525.0,2721.25,-840.0,69.92,-176.32,-480.32
348949.0776,52.155,-60.329,1012.356,1041.25,2380.0,-1181.25,74.48,-165.68,-489.44
348949.1276,64.172,-57.645,1010.038,131.25,2275.0,-192.5,72.96,-177.84,-486.4
348949.1776,61.427,-57.767,1008.635,306.25,2686.25,192.5,66.88,-182.4,-484.88
348949.2276,60.329,-57.157,1012.173,-61.25,2913.75,-297.5,66.88,-164.16,-510.72
348949.2776,61.183,-55.632,1011.197,-183.75,2922.5,-988.75,72.96,-177.84,-494.0
348949.3276,62.281,-53.863,1012.661,-708.75,3176.25,-665.0,66.88,-171.76,-478.8
348949.3776,63.196,-65.026,1012.295,-192.5,3412.5,-805.0,63.84,-165.68,-509.2
348949.4276,58.926,-60.878,1012.356,997.5,3246.25,-1172.5,62.32,-174.8,-492.48
348949.4776,59.658,-53.497,1012.844,367.5,3675.0,-1365.0,71.44,-179.36,-489.44
348949.5276,58.987,-59.841,1009.428,87.5,2546.25,-691.25,50.16,-173.28,-484.88
348949.5776,61.854,-54.534,1009.611,-70.0,3587.5,341.25,72.96,-173.28,-494.0
348949.6276,53.985,-62.708,1013.759,385.0,3368.75,227.5,72.96,-176.32,-498.56
348949.6776,55.266,-60.024,1016.504,78.75,2738.75,-656.25,71.44,-174.8,-489.44
348949.7276,58.011,-60.695,1012.234,735.0,2992.5,-691.25,66.88,-164.16,-475.76
348949.7776,47.763,-53.192,1012.234,-78.75,3027.5,-1041.25,63.84,-176.32,-498.56
348949.8278,53.07,-54.229,1009.977,516.25,2038.75,-1303.75,85.12,-171.76,-478.8
348949.8776,64.477,-61.183,1013.759,-1426.25,2948.75,-122.5,69.92,-161.12,-484.88
348949.9277,56.608,-62.037,1015.467,-78.75,3430.0,-455.0,60.8,-171.76,-494.0
348949.9776,57.218,-59.658,1012.417,323.75,2940.0,-936.25,79.04,-168.72,-494.0
348950.0277,57.95,-58.377,1009.55,26.25,2721.25,-463.75,68.4,-182.4,-492.48
348950.0776,59.475,-56.73,1010.709,227.5,2555.0,-87.5,68.4,-188.48,-489.44
348950.1276,66.49,-58.621,1012.905,-26.25,2913.75,210.0,82.08,-173.28,-472.72
348950.1776,74.115,-60.024,1015.406,-647.5,3613.75,332.5,71.44,-180.88,-487.92
348950.2276,57.096,-62.159,1011.563,-542.5,4996.25,-525.0,57.76,-161.12,-492.48
348950.2776,44.347,-62.464,1012.478,-735.0,3228.75,-2178.75,69.92,-167.2,-492.48
348950.3276,52.643,-67.954,1010.221,78.75,2905.0,-1505.0,69.92,-174.8,-495.52
348950.3776,49.898,-55.693,1011.746,1855.0,2275.0,-306.25,68.4,-171.76,-487.92
348950.4276,55.266,-49.837,1009.367,621.25,2931.25,288.75,66.88,-173.28,-483.36
348950.4776,51.24,-51.301,1015.894,-210.0,2187.5,603.75,83.6,-168.72,-477.28
348950.5276,60.146,-63.318,1009.55,-437.5,2100.0,245.0,74.48,-182.4,-489.44
348950.5776,62.342,-62.525,1013.454,236.25,2905.0,-428.75,62.32,-165.68,-481.84
348950.6276,55.022,-55.571,1014.125,350.0,3228.75,-1032.5,62.32,-168.72,-490.96
348950.6776,52.704,-52.765,1014.552,-192.5,2826.25,-621.25,85.12,-177.84,-487.92
348950.7276,58.499,-50.142,1008.94,-910.0,3027.5,-805.0,65.36,-174.8,-469.68
348950.7776,60.268,-58.499,1011.441,-910.0,2808.75,-1303.75,60.8,-177.84,-497.04
348950.8276,62.769,-62.403,1014.247,-1548.75,3106.25,-1426.25,65.36,-161.12,-497.04
348950.8776,57.279,-62.464,1014.491,-560.0,3307.5,-1058.75,72.96,-170.24,-497.04
348950.9276,53.436,-61.915,1015.284,-262.5,3115.0,-770.0,65.36,-164.16,-495.52
348950.9776,55.693,-59.719,1011.685,936.25,2948.75,-743.75,65.36,-162.64,-487.92
348951.0276,53.253,-58.316,1010.404,122.5,2651.25,-551.25,72.96,-167.2,-500.08
348951.0776,53.314,-58.56,1011.563,-533.75,2773.75,-455.0,66.88,-161.12,-478.8
348951.1276,57.218,-65.636,1014.186,-971.25,2765.0,-411.25,77.52,-159.6,-501.6
348951.1776,60.207,-67.466,1013.637,-402.5,2765.0,-988.75,71.44,-173.28,-500.08
348951.2276,62.281,-66.612,1013.149,446.25,2931.25,-1461.25,82.08,-174.8,-489.44
348951.2776,57.218,-66.185,1010.953,393.75,3745.0,-1522.5,66.88,-180.88,-486.4
348951.3276,53.985,-56.181,1011.929,1268.75,3368.75,-1120.0,60.8,-171.76,-504.64
348951.3776,50.752,-53.192,1013.637,-726.25,2905.0,-490.0,69.92,-170.24,-498.56
348951.4276,57.584,-64.538,1011.136,-131.25,2651.25,-271.25,74.48,-173.28,-478.8
348951.4776,57.279,-64.843,1012.417,-945.0,2887.5,-490.0,65.36,-158.08,-489.44
348951.5276,57.767,-69.052,1013.454,0.0,2922.5,-638.75,65.36,-179.36,-495.52
348951.5776,56.364,-62.891,1013.21,183.75,2878.75,-726.25,74.48,-176.32,-484.88
348951.6276,60.817,-56.12,1010.831,665.0,3176.25,-700.0,82.08,-177.84,-483.36
348951.6776,53.924,-55.693,1010.77,-96.25,3080.0,-875.0,77.52,-174.8,-506.16
348951.7276,61.183,-61.61,1011.319,-612.5,2791.25,-665.0,68.4,-179.36,-494.0
348951.7776,60.329,-62.891,1013.82,-411.25,3333.75,-822.5,74.48,-168.72,-474.24
348951.8276,53.68,-64.66,1015.894,175.0,3167.5,-1172.5,71.44,-167.2,-494.0
348951.8776,51.911,-63.135,1012.051,2178.75,2808.75,-1408.75,80.56,-167.2,-500.08
348951.9276,58.011,-61.366,1010.648,148.75,2598.75,-927.5,80.56,-176.32,-500.08
348951.9776,54.717,-62.525,1010.831,-166.25,2808.75,-437.5,77.52,-177.84,-486.4
348952.0276,54.839,-63.44,1014.613,-516.25,2581.25,-446.25,65.36,-167.2,-483.36
348952.0776,58.011,-64.477,1014.308,236.25,2546.25,-621.25,62.32,-171.76,-504.64
348952.1276,61.915,-63.623,1013.393,-350.0,2607.5,-656.25,65.36,-170.24,-495.52
348952.1776,58.316,-65.331,1012.783,367.5,2843.75,-1023.75,62.32,-180.88,-483.36
348952.2276,57.767,-64.477,1010.404,673.75,2896.25,-953.75,59.28,-173.28,-506.16
348952.2776,58.621,-57.584,1011.014,682.5,3430.0,-997.5,79.04,-161.12,-503.12
348952.3276,52.46,-63.867,1011.685,201.25,2240.0,-560.0,63.84,-177.84,-495.52
348952.3776,60.39,-58.499,1010.526,-157.5,2555.0,-603.75,65.36,-165.68,-481.84
348952.4276,62.22,-70.211,1011.99,-332.5,3123.75,-402.5,79.04,-176.32,-492.48
348952.4776,56.303,-66.124,1013.515,586.25,3447.5,-787.5,69.92,-162.64,-486.4
348952.5276,56.181,-63.806,1015.162,245.0,2651.25,-831.25,68.4,-173.28,-489.44
348952.5776,58.194,-57.645,1007.049,332.5,3491.25,-1312.5,63.84,-168.72,-492.48
348952.6276,54.9,-59.78,1010.648,-183.75,3018.75,-1111.25,69.92,-171.76,-492.48
348952.6776,61.183,-62.952,1012.844,-551.25,2992.5,-787.5,65.36,-182.4,-483.36
348952.7276,56.364,-66.795,1014.979,201.25,3141.25,-673.75,57.76,-158.08,-478.8
348952.7776,52.948,-61.854,1011.563,148.75,3150.0,-953.75,77.52,-177.84,-484.88
348952.8276,53.131,-61.061,1013.393,175.0,2861.25,-918.75,71.44,-168.72,-487.92
348952.8776,58.133,-59.597,1009.184,-157.5,2765.0,-428.75,63.84,-173.28,-498.56
348952.9276,57.401,-65.941,1012.661,-533.75,2887.5,-17.5,66.88,-170.24,-490.96
348952.9776,57.035,-66.307,1012.295,35.0,2808.75,-525.0,51.68,-170.24,-483.36
348953.0276,59.109,-65.88,1008.818,148.75,2870.0,-910.0,76.0,-159.6,-484.88
348953.0776,56.181,-60.024,1014.247,-70.0,3053.75,-962.5,60.8,-165.68,-490.96
348953.1276,56.364,-64.477,1011.075,-560.0,2913.75,-840.0,63.84,-168.72,-489.44
348953.1776,59.841,-64.05,1012.295,35.0,3272.5,-735.0,80.56,-174.8,-483.36
348953.2276,58.804,-60.634,1013.088,647.5,3360.0,-778.75,50.16,-165.68,-481.84
348953.2778,51.85,-57.828,1015.284,-481.25,3123.75,-997.5,72.96,-165.68,-490.96
348953.3276,60.085,-63.257,1006.5,70.0,2800.0,-577.5,74.48,-174.8,-490.96
348953.3777,60.634,-64.294,1010.038,-603.75,3010.0,-17.5,74.48,-174.8,-489.44
348953.4276,56.242,-66.917,1015.345,122.5,3342.5,-393.75,65.36,-171.76,-484.88
348953.4777,56.059,-62.037,1011.197,280.0,2913.75,-892.5,51.68,-152.0,-489.44
348953.5276,61.366,-62.22,1008.757,-210.0,3018.75,-568.75,76.0,-177.84,-484.88
348953.5776,57.279,-60.573,1010.16,-472.5,3001.25,-708.75,69.92,-165.68,-484.88
348953.6276,58.682,-64.965,1013.881,-498.75,3062.5,-472.5,62.32,-174.8,-490.96
348953.6776,62.159,-73.2,1013.149,-78.75,3045.0,-743.75,71.44,-170.24,-490.96
348953.7276,52.887,-69.967,1012.356,700.0,3596.25,-988.75,76.0,-171.76,-475.76
348953.7776,51.85,-63.196,1010.831,621.25,2773.75,-1163.75,50.16,-173.28,-494.0
348953.8276,54.839,-58.804,1010.892,148.75,2633.75,-507.5,74.48,-176.32,-501.6
348953.8776,54.9,-62.647,1010.709,-770.0,2371.25,-105.0,76.0,-183.92,-486.4
348953.9276,57.889,-66.856,1013.515,157.5,2030.0,96.25,72.96,-168.72,-483.36
348953.9776,60.573,-66.307,1011.929,665.0,1933.75,-148.75,76.0,-174.8,-490.96
348954.0276,64.843,-61.061,1013.759,428.75,2143.75,-201.25,63.84,-174.8,-513.76
348954.0776,68.442,-59.719,1011.624,87.5,2808.75,-350.0,77.52,-168.72,-487.92
348954.1276,65.819,-61.183,1007.781,192.5,3316.25,-883.75,76.0,-186.96,-474.24
348954.1776,65.087,-53.07,1012.234,647.5,3876.25,-1522.5,63.84,-167.2,-484.88
348954.2276,56.12,-47.58,1010.831,-848.75,3561.25,-1391.25,66.88,-161.12,-498.56
348954.2776,56.913,-65.087,1010.77,-1006.25,3307.5,-1120.0,68.4,-173.28,-500.08
348954.3276,60.024,-70.15,1014.003,-288.75,3053.75,-1085.0,68.4,-171.76,-487.92
348954.3776,61.305,-71.065,1017.236,551.25,3097.5,-875.0,72.96,-174.8,-484.88
348954.4276,56.181,-63.989,1012.661,490.0,3027.5,-420.0,76.0,-173.28,-500.08
348954.4776,62.891,-61.0,1008.879,875.0,3176.25,-726.25,72.96,-170.24,-484.88
348954.5276,57.95,-56.242,1012.051,227.5,3263.75,-1128.75,65.36,-158.08,-466.64
348954.5776,59.475,-57.828,1014.064,-157.5,3325.0,-813.75,69.92,-183.92,-489.44
348954.6276,59.414,-62.586,1011.624,-507.5,3762.5,-1277.5,72.96,-179.36,-487.92
348954.6777,55.388,-62.83,1009.672,-78.75,3290.0,-1688.75,69.92,-173.28,-484.88
348954.7276,53.558,-62.098,1012.661,455.0,2861.25,-1610.0,77.52,-168.72,-490.96
348954.7776,53.985,-55.937,1013.576,446.25,2835.0,-516.25,68.4,-173.28,-492.48
348954.8276,53.985,-60.268,1010.831,376.25,2808.75,-306.25,72.96,-159.6,-506.16
348954.8776,56.242,-60.268,1012.173,43.75,2406.25,-463.75,65.36,-171.76,-471.2
348954.9276,64.172,-58.194,1013.82,8.75,2528.75,-647.5,68.4,-159.6,-497.04
348954.9776,63.623,-61.61,1010.526,105.0,2826.25,-988.75,69.92,-164.16,-484.88
348955.0276,58.804,-61.976,1010.587,8.75,3228.75,-1032.5,76.0,-180.88,-492.48
348955.0776,57.584,-52.155,1013.149,542.5,3377.5,-936.25,68.4,-171.76,-495.52
348955.1276,53.741,-63.196,1016.504,-1321.25,2800.0,-437.5,66.88,-161.12,-495.52
348955.1776,61.488,-63.684,1012.417,481.25,2520.0,-621.25,63.84,-164.16,-487.92
348955.2276,60.817,-63.318,1013.027,113.75,2791.25,-560.0,79.04,-165.68,-477.28
348955.2776,59.841,-59.109,1012.844,883.75,3123.75,-665.0,66.88,-176.32,-494.0
348955.3276,56.913,-55.693,1015.04,-78.75,2826.25,-656.25,51.68,-176.32,-503.12
348955.3776,61.427,-57.157,1009.55,647.5,3237.5,-1242.5,76.0,-165.68,-486.4
348955.4276,54.656,-53.985,1009.123,-638.75,2773.75,-1023.75,69.92,-176.32,-481.84
348955.4776,58.987,-59.109,1013.759,-1251.25,2826.25,-910.0,63.84,-179.36,-481.84
348955.5276,60.329,-65.514,1013.393,-770.0,3036.25,-446.25,72.96,-165.68,-489.44
348955.5776,54.168,-66.185,1014.674,306.25,3141.25,-726.25,79.04,-171.76,-477.28
348955.6276,59.597,-62.83,1009.001,490.0,2660.0,-1303.75,62.32,-162.64,-477.28
348955.6776,57.95,-57.34,1011.746,210.0,3115.0,-735.0,68.4,-165.68,-484.88
348955.7276,54.656,-57.462,1010.526,-463.75,2782.5,-621.25,65.36,-171.76,-490.96
348955.7776,58.56,-62.525,1011.197,-245.0,2791.25,-778.75,71.44,-180.88,-484.88
348955.8276,56.974,-62.098,1014.674,-490.0,2633.75,-813.75,62.32,-164.16,-495.52
348955.8776,57.828,-69.418,1014.003,420.0,2581.25,-971.25,80.56,-179.36,-484.88
348955.9276,61.427,-65.636,1010.648,568.75,2861.25,-901.25,76.0,-168.72,-484.88
348955.9776,60.207,-60.817,1011.563,1907.5,2835.0,-988.75,45.6,-177.84,-472.72
348956.0276,57.95,-54.778,1014.552,-875.0,2957.5,-525.0,74.48,-161.12,-492.48
348956.0776,61.0,-62.769,1009.001,595.0,2808.75,-455.0,69.92,-173.28,-483.36
348956.1276,63.196,-60.39,1013.759,-595.0,3211.25,-577.5,65.36,-174.8,-483.36
348956.1776,60.634,-62.891,1013.332,350.0,3211.25,-866.25,68.4,-174.8,-489.44
348956.2276,57.767,-56.791,1014.003,218.75,3202.5,-1102.5,71.44,-168.72,-492.48
348956.2776,61.0,-58.865,1009.245,883.75,3071.25,-1102.5,47.12,-167.2,-459.04
348956.3276,55.571,-54.229,1011.441,210.0,3281.25,-971.25,66.88,-165.68,-487.92
348956.3776,56.73,-55.876,1012.722,87.5,3027.5,-507.5,60.8,-174.8,-495.52
348956.4276,64.843,-61.427,1013.82,-26.25,3097.5,-647.5,80.56,-170.24,-494.0
348956.4776,57.828,-59.719,1013.271,805.0,3325.0,-1111.25,71.44,-170.24,-481.84
348956.5276,54.229,-56.059,1011.014,-8.75,2808.75,-1557.5,65.36,-170.24,-489.44
348956.5776,56.486,-56.974,1010.892,43.75,2598.75,-822.5,71.44,-167.2,-498.56
348956.6276,56.364,-56.181,1012.295,-708.75,2625.0,17.5,71.44,-171.76,-494.0
348956.6776,58.499,-59.719,1015.528,-577.5,2222.5,-35.0,79.04,-173.28,-486.4
348956.7278,62.464,-57.767,1013.149,-166.25,2633.75,-551.25,71.44,-162.64,-503.12
348956.7776,61.915,-60.634,1015.284,-297.5,2983.75,-848.75,71.44,-174.8,-497.04
348956.8277,58.682,-59.109,1010.831,-87.5,3176.25,-953.75,66.88,-174.8,-481.84
348956.8776,59.597,-61.244,1010.892,-113.75,3115.0,-761.25,53.2,-167.2,-494.0
348956.9276,63.745,-55.327,1013.393,376.25,3062.5,-708.75,71.44,-168.72,-477.28
348956.9776,56.608,-60.207,1014.003,-1863.75,2668.75,-533.75,74.48,-173.28,-481.84
348957.0276,60.634,-65.087,1011.563,-568.75,2791.25,-638.75,71.44,-176.32,-483.36
348957.0776,60.756,-68.869,1012.478,-638.75,2712.5,-428.75,51.68,-165.68,-500.08
348957.1276,60.695,-66.734,1016.748,350.0,3001.25,-463.75,65.36,-170.24,-490.96
348957.1776,58.072,-61.732,1014.186,-61.25,2948.75,-498.75,76.0,-177.84,-483.36
348957.2276,59.719,-58.194,1010.221,726.25,3255.0,-551.25,66.88,-177.84,-490.96
348957.2776,57.889,-57.706,1010.77,61.25,2598.75,-726.25,56.24,-170.24,-477.28
348957.3276,62.525,-56.364,1014.064,-962.5,2948.75,-70.0,68.4,-165.68,-487.92
348957.3776,59.719,-67.466,1016.077,-70.0,3176.25,-428.75,60.8,-174.8,-487.92
348957.4276,58.743,-68.503,1014.918,560.0,3053.75,-1076.25,69.92,-183.92,-483.36
348957.4776,63.074,-60.146,1009.489,1435.0,3001.25,-1260.0,71.44,-165.68,-503.12
348957.5276,58.743,-57.462,1008.391,691.25,3220.0,-831.25,79.04,-174.8,-480.32
348957.5776,58.011,-53.009,1010.831,-61.25,2677.5,-341.25,65.36,-174.8,-492.48
348957.6276,57.767,-61.122,1014.735,-297.5,2537.5,-490.0,63.84,-170.24,-490.96
348957.6776,59.536,-60.695,1014.186,-175.0,2625.0,-402.5,66.88,-170.24,-492.48
348957.7276,63.318,-62.83,1012.905,-411.25,3088.75,-665.0,65.36,-164.16,-466.64
348957.7776,59.536,-60.085,1011.99,-113.75,2992.5,-892.5,66.88,-177.84,-475.76
348957.8276,64.172,-62.403,1012.6,682.5,3053.75,-673.75,72.96,-164.16,-495.52
348957.8776,55.571,-53.314,1013.637,-437.5,3316.25,-455.0,71.44,-176.32,-480.32
348957.9276,59.048,-65.697,1010.526,-245.0,2607.5,-288.75,71.44,-170.24,-489.44
348957.9776,59.902,-63.867,1011.563,-297.5,2686.25,-647.5,50.16,-165.68,-495.52
348958.0276,62.525,-64.599,1010.526,35.0,2913.75,-498.75,74.48,-168.72,-490.96
348958.0776,59.536,-61.549,1015.955,726.25,2966.25,-595.0,72.96,-180.88,-487.92
348958.1276,63.867,-58.743,1012.356,726.25,2852.5,-656.25,69.92,-182.4,-495.52
348958.1776,57.157,-58.804,1013.454,901.25,2668.75,-1128.75,86.64,-180.88,-481.84
348958.2276,63.501,-58.743,1012.173,306.25,2598.75,-840.0,71.44,-168.72,-490.96
348958.2776,69.174,-58.438,1014.003,332.5,3281.25,-682.5,68.4,-173.28,-503.12
348958.3276,59.963,-58.621,1015.223,1198.75,3893.75,-892.5,57.76,-176.32,-497.04
348958.3776,58.011,-51.728,1006.256,717.5,3255.0,-1216.25,68.4,-177.84,-478.8
348958.4276,57.401,-46.238,1009.611,638.75,3088.75,-752.5,76.0,-179.36,-484.88
348958.4776,57.279,-44.53,1008.391,-1697.5,2301.25,-1076.25,79.04,-176.32,-490.96
348958.5276,63.623,-59.292,1010.465,-1925.0,2590.0,-586.25,71.44,-170.24,-509.2
348958.5776,61.793,-63.562,1018.395,-673.75,2913.75,-201.25,77.52,-177.84,-487.92
348958.6276,63.623,-63.501,1015.894,315.0,2765.0,-1347.5,72.96,-174.8,-475.76
348958.6776,64.721,-60.756,1010.099,831.25,2992.5,-1146.25,59.28,-165.68,-503.12
348958.7276,58.743,-48.739,1013.027,1137.5,3351.25,-1338.75,77.52,-177.84,-475.76
348958.7776,54.534,-46.604,1012.173,-892.5,2738.75,-1583.75,72.96,-180.88,-487.92
348958.8276,69.662,-61.366,1008.513,-105.0,3395.0,-568.75,56.24,-170.24,-494.0
348958.8776,62.708,-61.488,1011.868,-787.5,3885.0,-227.5,68.4,-182.4,-492.48
348958.9276,57.035,-63.684,1014.735,376.25,2905.0,-1032.5,74.48,-180.88,-474.24
348958.9776,59.109,-60.268,1014.308,-411.25,2887.5,-848.75,53.2,-185.44,-483.36
348959.0276,63.44,-58.255,1010.892,586.25,3333.75,-498.75,62.32,-168.72,-490.96
348959.0776,51.484,-56.73,1012.478,350.0,2712.5,-796.25,71.44,-174.8,-492.48
348959.1276,56.852,-56.852,1014.735,-131.25,2555.0,-498.75,69.92,-170.24,-474.24
348959.1776,64.294,-58.621,1011.441,507.5,3010.0,-437.5,60.8,-170.24,-492.48
348959.2276,57.828,-56.974,1008.94,70.0,3237.5,-717.5,59.28,-171.76,-492.48
348959.2776,57.157,-59.475,1011.807,472.5,2756.25,-1076.25,74.48,-180.88,-487.92
348959.3276,60.634,-54.229,1011.685,315.0,2581.25,-227.5,72.96,-173.28,-480.32
348959.3776,62.159,-56.608,1010.587,-420.0,2467.5,218.75,71.44,-165.68,-506.16
348959.4276,62.403,-61.122,1015.772,-17.5,2633.75,-367.5,77.52,-165.68,-487.92
348959.4776,66.49,-58.438,1012.234,236.25,2738.75,-665.0,69.92,-170.24,-489.44
348959.5276,63.684,-57.401,1012.051,-183.75,3001.25,-840.0,60.8,-171.76,-489.44
348959.5776,64.477,-60.756,1013.21,-105.0,3115.0,-997.5,71.44,-176.32,-494.0
348959.6276,66.673,-57.767,1011.441,-52.5,3342.5,-770.0,71.44,-165.68,-480.32
348959.6776,64.05,-54.229,1012.112,945.0,3692.5,-1041.25,74.48,-170.24,-500.08
348959.7276,57.523,-53.436,1012.173,-901.25,3115.0,-1207.5,50.16,-177.84,-498.56
348959.7776,61.976,-60.085,1010.526,-70.0,3097.5,-1172.5,65.36,-162.64,-503.12
348959.8276,61.854,-60.573,1013.698,-490.0,3325.0,-796.25,69.92,-180.88,-486.4
348959.8776,58.499,-58.987,1015.467,341.25,3088.75,-875.0,66.88,-174.8,-489.44
348959.9276,57.584,-59.231,1014.125,8.75,3167.5,-1242.5,82.08,-165.68,-495.52
348959.9776,60.39,-54.229,1008.696,560.0,3150.0,-1216.25,82.08,-174.8,-486.4
348960.0276,57.706,-51.057,1010.038,-201.25,2905.0,-997.5,59.28,-171.76,-472.72
348960.0778,58.865,-58.865,1013.637,-673.75,3001.25,-455.0,62.32,-174.8,-498.56
348960.1276,58.804,-62.037,1014.613,-227.5,3360.0,-813.75,79.04,-173.28,-484.88
348960.1778,56.242,-58.987,1011.563,367.5,3167.5,-980.0,77.52,-171.76,-469.68
348960.2276,57.523,-57.096,1011.685,455.0,2467.5,-752.5,63.84,-179.36,-481.84
348960.2776,58.255,-53.314,1009.001,-332.5,2528.75,-253.75,71.44,-179.36,-478.8
348960.3276,61.732,-60.268,1011.258,-656.25,2695.0,245.0,72.96,-168.72,-483.36
348960.3776,59.78,-60.939,1012.173,-166.25,2555.0,-192.5,66.88,-179.36,-503.12
348960.4276,61.793,-59.597,1011.502,-332.5,2642.5,-945.0,66.88,-165.68,-489.44
348960.4776,65.758,-57.706,1011.197,-288.75,3018.75,-595.0,68.4,-170.24,-486.4
348960.5276,60.329,-64.416,1014.247,-236.25,2826.25,-892.5,74.48,-176.32,-487.92
348960.5776,60.756,-63.44,1011.685,551.25,3053.75,-1391.25,62.32,-173.28,-494.0
348960.6276,65.453,-63.013,1012.478,1470.0,3106.25,-918.75,57.76,-182.4,-504.64
348960.6776,53.863,-51.484,1014.857,437.5,3806.25,-1041.25,82.08,-173.28,-483.36
348960.7276,51.972,-56.364,1012.356,87.5,2310.0,-533.75,69.92,-180.88,-474.24
348960.7776,64.721,-56.73,1012.112,-1190.0,2826.25,-306.25,63.84,-168.72,-486.4
348960.8276,60.939,-62.83,1014.064,17.5,3255.0,-752.5,71.44,-186.96,-500.08
348960.8776,57.889,-64.782,1015.345,315.0,2800.0,-1172.5,77.52,-174.8,-487.92
348960.9276,63.684,-58.926,1010.892,892.5,2808.75,-665.0,59.28,-188.48,-495.52
348960.9776,60.878,-53.375,1010.953,358.75,3640.0,-708.75,65.36,-173.28,-484.88
348961.0276,55.083,-52.765,1014.857,-61.25,3045.0,-761.25,79.04,-177.84,-500.08
348961.0776,61.244,-59.109,1012.295,-105.0,2983.75,-901.25,59.28,-171.76,-486.4
348961.1276,59.597,-59.902,1012.356,17.5,3368.75,-743.75,68.4,-174.8,-498.56
348961.1776,57.096,-58.377,1008.757,17.5,2896.25,-752.5,74.48,-171.76,-501.6
348961.2276,59.048,-57.401,1013.271,52.5,2362.5,-603.75,74.48,-173.28,-489.44
348961.2776,59.719,-56.974,1014.247,70.0,2248.75,-131.25,63.84,-180.88,-489.44
348961.3276,65.026,-63.989,1015.345,595.0,2913.75,516.25,60.8,-161.12,-486.4
348961.3776,58.621,-63.074,1014.857,857.5,3027.5,61.25,68.4,-174.8,-500.08
348961.4276,60.756,-51.484,1014.247,1242.5,2327.5,-1365.0,80.56,-180.88,-480.32
348961.4776,66.185,-51.911,1010.038,490.0,3438.75,-638.75,57.76,-165.68,-494.0
348961.5276,55.632,-55.388,1015.284,201.25,3316.25,-726.25,65.36,-171.76,-498.56
348961.5776,63.074,-52.765,1012.112,463.75,2695.0,-1382.5,80.56,-173.28,-484.88
348961.6276,64.355,-49.593,1012.6,52.5,3325.0,-1146.25,74.48,-179.36,-489.44
348961.6776,54.29,-54.656,1012.539,-980.0,2800.0,-498.75,62.32,-167.2,-501.6
348961.7276,65.148,-59.841,1010.709,43.75,2695.0,-971.25,83.6,-177.84,-481.84
348961.7776,52.643,-62.769,1011.929,-411.25,2677.5,-1102.5,57.76,-177.84,-487.92
348961.8276,51.301,-62.22,1014.979,630.0,2117.5,-612.5,66.88,-173.28,-487.92
348961.8776,63.562,-57.462,1014.918,822.5,1461.25,131.25,62.32,-183.92,-494.0
348961.9276,65.392,-45.689,1009.428,1575.0,2677.5,166.25,76.0,-170.24,-486.4
348961.9776,65.575,-47.031,1008.757,350.0,2380.0,-385.0,53.2,-182.4,-484.88
348962.0276,74.725,-50.142,1015.284,-332.5,3150.0,-1041.25,63.84,-179.36,-490.96
348962.0776,70.882,-55.632,1012.478,-306.25,3771.25,-1706.25,69.92,-179.36,-495.52
348962.1276,61.61,-58.926,1013.515,43.75,3832.5,-2345.0,63.84,-174.8,-500.08
348962.1776,60.573,-51.85,1012.783,927.5,3543.75,-1846.25,57.76,-183.92,-494.0
348962.2276,58.621,-46.238,1012.539,638.75,3150.0,-822.5,72.96,-171.76,-489.44
348962.2776,61.305,-47.031,1010.099,253.75,2800.0,-323.75,69.92,-191.52,-481.84
348962.3276,62.647,-46.726,1012.722,122.5,2668.75,-323.75,72.96,-171.76,-490.96
348962.3776,66.185,-44.469,1005.829,-1505.0,2686.25,-586.25,71.44,-183.92,-498.56
348962.4276,69.723,-55.693,1013.82,-822.5,3491.25,-1303.75,79.04,-177.84,-481.84
348962.4776,63.379,-53.985,1009.977,-105.0,3325.0,-1242.5,60.8,-174.8,-497.04
348962.5276,62.22,-52.46,1016.382,-148.75,3998.75,-1198.75,65.36,-176.32,-489.44
348962.5776,57.401,-57.462,1018.944,-875.0,3403.75,-857.5,74.48,-177.84,-469.68
348962.6276,62.769,-54.595,1010.648,586.25,3045.0,-560.0,65.36,-190.0,-481.84
348962.6776,56.547,-57.645,1013.576,131.25,2878.75,-420.0,59.28,-170.24,-474.24
348962.7276,59.719,-52.155,1014.247,595.0,2677.5,-647.5,68.4,-179.36,-504.64
348962.7776,61.671,-55.693,1012.661,595.0,2406.25,-245.0,63.84,-174.8,-487.92
348962.8276,62.037,-52.277,1013.21,595.0,2983.75,-875.0,63.84,-171.76,-480.32
348962.8776,61.915,-48.556,1009.733,665.0,2730.0,-805.0,65.36,-177.84,-503.12
348962.9276,68.442,-48.19,1011.075,-288.75,3351.25,-402.5,72.96,-168.72,-503.12
348962.9776,63.562,-48.495,1014.186,-288.75,3771.25,-358.75,57.76,-182.4,-490.96
348963.0276,54.595,-52.033,1012.356,-43.75,2616.25,-1566.25,66.88,-182.4,-468.16
348963.0776,60.085,-48.922,1012.173,17.5,2266.25,-1531.25,62.32,-168.72,-500.08
348963.1276,63.806,-51.179,1012.234,-586.25,2782.5,0.0,74.48,-182.4,-480.32
348963.1776,59.658,-56.547,1012.417,-315.0,2940.0,8.75,72.96,-173.28,-486.4
348963.2276,64.904,-55.083,1013.515,-927.5,2633.75,-218.75,65.36,-176.32,-503.12
348963.2776,64.172,-59.231,1015.467,-385.0,3298.75,-892.5,68.4,-183.92,-483.36
348963.3278,63.257,-58.194,1011.38,236.25,3228.75,-1513.75,69.92,-164.16,-483.36
348963.3776,66.063,-51.423,1008.208,840.0,3683.75,-1426.25,63.84,-179.36,-489.44
348963.4277,53.07,-48.19,1012.844,-761.25,3622.5,-927.5,66.88,-182.4,-489.44
348963.4776,57.218,-58.56,1010.953,-560.0,3018.75,-1015.0,79.04,-177.84,-484.88
348963.5277,63.623,-62.037,1014.125,-157.5,2905.0,-708.75,56.24,-174.8,-474.24
348963.5776,60.878,-58.56,1012.905,691.25,3438.75,-770.0,62.32,-170.24,-510.72
348963.6276,55.51,-52.826,1012.112,245.0,2642.5,-647.5,66.88,-174.8,-489.44
348963.6776,60.939,-50.813,1010.16,1041.25,2598.75,-533.75,68.4,-179.36,-475.76
348963.7276,57.889,-48.8,1010.77,-78.75,2878.75,-761.25,41.04,-171.76,-495.52
348963.7776,63.867,-51.606,1013.393,-752.5,2826.25,-1207.5,71.44,-185.44,-481.84
348963.8276,67.893,-58.194,1014.247,-306.25,3351.25,-1461.25,69.92,-185.44,-480.32
348963.8776,57.401,-57.889,1012.417,192.5,3447.5,-1513.75,53.2,-190.0,-480.32
348963.9276,59.719,-54.961,1011.258,253.75,2870.0,-1916.25,65.36,-168.72,-497.04
348963.9776,64.721,-55.693,1009.916,-8.75,3290.0,-1251.25,69.92,-179.36,-489.44
348964.0276,57.462,-53.802,1011.136,-463.75,3150.0,-717.5,88.16,-179.36,-472.72
348964.0776,58.56,-51.789,1013.21,-533.75,2607.5,-962.5,71.44,-177.84,-503.12
348964.1276,62.22,-58.316,1014.064,-682.5,2931.25,-953.75,74.48,-174.8,-486.4
348964.1776,65.392,-58.011,1014.552,0.0,3500.0,-393.75,85.12,-168.72,-490.96
348964.2276,61.854,-53.985,1014.857,918.75,4025.0,271.25,53.2,-167.2,-492.48
348964.2776,53.741,-49.532,1013.332,-726.25,3727.5,-280.0,59.28,-182.4,-483.36
348964.3276,54.412,-57.34,1008.452,525.0,2817.5,-848.75,68.4,-176.32,-503.12
348964.3776,61.854,-58.316,1009.428,-971.25,2905.0,-953.75,63.84,-182.4,-489.44
348964.4276,59.841,-61.244,1013.454,140.0,3132.5,-525.0,60.8,-176.32,-492.48
348964.4776,54.351,-59.17,1013.332,35.0,2861.25,-647.5,65.36,-173.28,-486.4
348964.5276,58.987,-56.12,1011.319,463.75,2100.0,-507.5,71.44,-173.28,-486.4
348964.5776,57.95,-52.338,1011.014,-43.75,2800.0,-323.75,69.92,-177.84,-483.36
348964.6276,58.926,-54.839,1015.406,-717.5,2677.5,17.5,69.92,-176.32,-484.88
348964.6776,63.257,-60.451,1016.931,-253.75,2642.5,-183.75,72.96,-179.36,-483.36
348964.7276,58.377,-53.741,1013.881,568.75,3228.75,-691.25,63.84,-185.44,-487.92
348964.7776,58.377,-50.874,1012.6,315.0,2765.0,-1111.25,63.84,-179.36,-495.52
348964.8276,59.414,-51.484,1010.953,-236.25,3053.75,-411.25,63.84,-182.4,-495.52
348964.8776,61.122,-57.401,1013.576,-385.0,2887.5,-297.5,69.92,-188.48,-477.28
348964.9276,59.902,-57.95,1011.502,35.0,2563.75,-332.5,69.92,-190.0,-495.52
348964.9776,62.281,-56.486,1011.746,-490.0,2695.0,-350.0,71.44,-174.8,-495.52
348965.0276,65.331,-59.841,1013.149,-262.5,3193.75,-568.75,72.96,-170.24,-478.8
348965.0776,58.194,-57.645,1013.82,87.5,3325.0,-892.5,68.4,-173.28,-492.48
348965.1276,64.05,-50.996,1010.648,840.0,3928.75,-927.5,63.84,-173.28,-489.44
348965.1776,53.68,-48.19,1012.234,-1146.25,3648.75,-437.5,82.08,-177.84,-483.36
348965.2276,58.499,-58.011,1011.685,288.75,3202.5,-595.0,83.6,-173.28,-489.44
348965.2776,59.109,-58.438,1013.759,-201.25,2887.5,-770.0,63.84,-171.76,-486.4
348965.3276,57.279,-59.048,1014.369,595.0,3456.25,-157.5,60.8,-177.84,-507.68
348965.3776,53.192,-55.51,1013.698,227.5,2607.5,-341.25,72.96,-164.16,-483.36
348965.4276,61.0,-51.24,1008.269,700.0,2703.75,-560.0,57.76,-182.4,-486.4
348965.4776,57.523,-52.582,1011.929,61.25,2852.5,-507.5,62.32,-165.68,-483.36
348965.5276,60.695,-54.717,1014.613,-323.75,2922.5,-315.0,72.96,-167.2,-483.36
348965.5776,62.769,-57.218,1014.186,113.75,3351.25,-673.75,77.52,-171.76,-490.96
348965.6276,57.95,-55.022,1013.759,210.0,3255.0,-691.25,63.84,-168.72,-495.52
348965.6776,56.73,-53.192,1012.783,411.25,3141.25,-953.75,62.32,-171.76,-498.56
348965.7276,54.351,-51.057,1011.746,78.75,3228.75,-166.25,80.56,-185.44,-489.44
348965.7776,56.181,-55.266,1010.404,-271.25,3123.75,-201.25,62.32,-165.68,-483.36
348965.8276,59.963,-55.571,1016.626,-183.75,2537.5,-735.0,74.48,-173.28,-500.08
348965.8776,61.732,-54.961,1013.454,157.5,2870.0,-883.75,69.92,-161.12,-494.0
348965.9276,59.353,-54.778,1013.393,26.25,3263.75,-875.0,66.88,-186.96,-495.52
348965.9776,59.78,-52.277,1013.576,656.25,2975.0,-883.75,71.44,-177.84,-494.0
348966.0276,57.157,-49.044,1015.467,-113.75,3675.0,-1207.5,71.44,-168.72,-481.84
348966.0776,53.131,-59.902,1008.696,-26.25,2896.25,-918.75,66.88,-185.44,-494.0
348966.1276,54.473,-52.338,1009.245,-245.0,2563.75,-866.25,71.44,-170.24,-486.4
348966.1776,57.645,-58.133,1011.929,-367.5,3123.75,-481.25,69.92,-170.24,-498.56
348966.2276,52.277,-57.889,1012.6,-262.5,2931.25,-446.25,65.36,-173.28,-497.04
348966.2776,58.804,-57.035,1011.746,201.25,2502.5,-726.25,65.36,-170.24,-481.84
348966.3276,42.883,-57.401,1014.186,306.25,2126.25,-1986.25,69.92,-171.76,-497.04
348966.3776,59.78,-47.214,1010.587,1268.75,1006.25,-2432.5,71.44,-182.4,-495.52
348966.4276,71.37,-54.229,1012.478,-787.5,3832.5,288.75,74.48,-186.96,-478.8
348966.4776,52.643,-56.425,1015.406,-175.0,3788.75,262.5,69.92,-167.2,-474.24
348966.5276,54.412,-54.412,1016.077,78.75,2870.0,-770.0,57.76,-170.24,-492.48
348966.5776,57.584,-55.388,1012.051,-131.25,2843.75,-472.5,65.36,-177.84,-497.04
348966.6276,58.56,-53.619,1011.807,385.0,2817.5,-105.0,76.0,-186.96,-486.4
348966.6776,63.684,-50.203,1015.101,-1015.0,3123.75,490.0,65.36,-180.88,-489.44
348966.7276,59.17,-55.327,1014.125,-1023.75,3631.25,-245.0,54.72,-179.36,-487.92
348966.7777,55.388,-58.499,1012.661,-1163.75,3552.5,-1006.25,83.6,-170.24,-480.32
348966.8276,63.013,-54.961,1013.21,87.5,3115.0,-2108.75,71.44,-191.52,-497.04
348966.8777,55.388,-54.778,1016.138,-953.75,3675.0,-1601.25,76.0,-179.36,-501.6
348966.9276,53.802,-59.048,1010.038,-420.0,3185.0,-866.25,69.92,-176.32,-481.84
348966.9776,54.961,-69.479,1011.014,-813.75,2791.25,-1102.5,76.0,-180.88,-478.8
348967.0276,58.438,-66.612,1013.21,210.0,2913.75,-971.25,63.84,-171.76,-486.4
348967.0776,53.436,-60.39,1014.857,288.75,3360.0,-910.0,76.0,-165.68,-495.52
348967.1276,57.401,-55.815,1010.953,647.5,3211.25,-980.0,79.04,-182.4,-487.92
348967.1776,50.813,-53.497,1011.685,-61.25,3115.0,-1225.0,57.76,-179.36,-483.36
348967.2276,53.436,-55.632,1012.539,-201.25,2966.25,-542.5,57.76,-179.36,-504.64
348967.2776,55.998,-60.817,1014.918,113.75,3465.0,-350.0,69.92,-177.84,-477.28
348967.3276,53.924,-52.826,1012.844,883.75,3106.25,-525.0,68.4,-173.28,-486.4
348967.3776,51.972,-54.595,1013.088,455.0,3097.5,-1085.0,44.08,-171.76,-495.52
348967.4276,54.9,-51.789,1011.38,-673.75,2668.75,-586.25,65.36,-171.76,-481.84
348967.4776,57.645,-55.571,1011.136,-770.0,2887.5,-87.5,72.96,-182.4,-487.92
348967.5276,53.436,-60.939,1013.454,113.75,2677.5,-481.25,66.88,-177.84,-495.52
348967.5776,62.159,-59.841,1011.929,-358.75,2572.5,-1023.75,68.4,-179.36,-498.56
348967.6276,61.427,-63.501,1013.21,61.25,3018.75,-1347.5,80.56,-180.88,-484.88
348967.6776,55.327,-63.989,1011.502,647.5,3036.25,-1120.0,76.0,-180.88,-483.36
348967.7276,58.621,-54.229,1011.441,1155.0,3395.0,-1216.25,65.36,-177.84,-489.44
348967.7776,51.789,-55.388,1012.295,-595.0,2905.0,-1023.75,54.72,-170.24,-494.0
348967.8276,55.327,-57.706,1007.049,-61.25,2677.5,-831.25,79.04,-183.92,-468.16
348967.8776,57.035,-59.719,1015.101,-113.75,2975.0,-656.25,85.12,-179.36,-490.96
348967.9276,50.813,-58.072,1013.698,297.5,2843.75,-577.5,63.84,-185.44,-487.92
348967.9776,53.07,-54.229,1014.552,-323.75,2546.25,-481.25,66.88,-176.32,-490.96
348968.0276,58.926,-57.035,1009.916,227.5,3097.5,-752.5,65.36,-173.28,-480.32
348968.0776,50.325,-53.314,1013.82,-166.25,2537.5,-603.75,59.28,-176.32,-490.96
348968.1276,57.096,-54.656,1014.247,-428.75,2625.0,-586.25,66.88,-174.8,-498.56
348968.1776,55.449,-60.329,1012.417,-411.25,2887.5,-288.75,68.4,-176.32,-490.96
348968.2276,54.29,-58.377,1014.064,-411.25,3018.75,-542.5,77.52,-177.84,-483.36
348968.2776,57.035,-61.671,1013.698,-402.5,2458.75,-358.75,66.88,-167.2,-495.52
348968.3276,58.438,-59.658,1011.197,-315.0,2686.25,105.0,71.44,-179.36,-490.96
348968.3776,55.51,-61.488,1014.43,-376.25,2555.0,148.75,71.44,-176.32,-500.08
348968.4276,60.878,-62.708,1012.051,507.5,2721.25,-586.25,48.64,-161.12,-487.92
348968.4776,60.939,-62.586,1013.942,-87.5,2905.0,-525.0,71.44,-173.28,-495.52
348968.5276,58.438,-64.355,1012.661,665.0,3193.75,-875.0,68.4,-171.76,-481.84
348968.5776,56.425,-56.486,1009.672,1120.0,3255.0,-1391.25,65.36,-179.36,-497.04
348968.6276,57.584,-51.728,1010.648,1181.25,3421.25,-1172.5,69.92,-170.24,-501.6
348968.6776,51.484,-63.745,1018.944,-87.5,3237.5,-472.5,66.88,-170.24,-500.08
348968.7276,53.009,-66.002,1011.258,1837.5,3193.75,-1435.0,76.0,-173.28,-474.24
348968.7776,61.122,-53.863,1008.94,953.75,2432.5,-1023.75,63.84,-180.88,-484.88
348968.8276,65.331,-54.595,1012.051,1548.75,3605.0,-245.0,72.96,-170.24,-504.64
348968.8776,45.506,-51.85,1010.404,892.5,3535.0,-332.5,77.52,-183.92,-486.4
348968.9276,55.388,-40.87,1012.417,638.75,3115.0,-490.0,63.84,-170.24,-489.44
348968.9776,58.377,-48.983,1015.101,-595.0,2721.25,-367.5,60.8,-171.76,-500.08
348969.0276,55.327,-59.292,1016.931,-437.5,3167.5,-673.75,83.6,-186.96,-484.88
348969.0776,56.242,-60.268,1015.772,52.5,2800.0,-1303.75,66.88,-176.32,-478.8
348969.1276,57.645,-53.497,1014.613,2143.75,3167.5,-1513.75,53.2,-173.28,-498.56
348969.1776,50.935,-41.175,1008.33,1793.75,3202.5,-1295.0,76.0,-182.4,-503.12
348969.2276,47.458,-39.589,1008.757,525.0,2511.25,-717.5,72.96,-171.76,-498.56
348969.2776,57.523,-43.554,1010.526,-245.0,2598.75,-507.5,60.8,-168.72,-494.0
348969.3276,55.754,-46.299,1009.184,-726.25,2695.0,-315.0,77.52,-177.84,-504.64
348969.3776,61.244,-51.972,1015.406,-708.75,2843.75,-682.5,79.04,-188.48,-486.4
348969.4276,55.754,-46.116,1012.905,-175.0,3255.0,-1233.75,59.28,-176.32,-484.88
348969.4776,53.314,-48.8,1009.428,-577.5,2782.5,-822.5,56.24,-170.24,-500.08
348969.5276,55.083,-43.737,1012.112,-358.75,3587.5,-1207.5,66.88,-180.88,-475.76
348969.5776,49.715,-48.739,1015.955,-1295.0,2905.0,-603.75,68.4,-162.64,-486.4
348969.6276,58.377,-54.168,1009.489,-665.0,2520.0,-665.0,71.44,-174.8,-503.12
348969.6776,61.122,-60.451,1013.088,-577.5,3018.75,-647.5,94.24,-180.88,-489.44
348969.7276,52.704,-58.438,1017.419,420.0,3281.25,-542.5,83.6,-180.88,-481.84
348969.7776,48.495,-53.497,1016.626,315.0,2196.25,-166.25,66.88,-174.8,-497.04
348969.8276,55.632,-48.678,1011.685,481.25,2065.0,-271.25,62.32,-177.84,-506.16
348969.8776,61.427,-46.116,1012.478,-516.25,2668.75,-96.25,66.88,-170.24,-506.16
348969.9276,60.634,-56.425,1014.491,-848.75,3438.75,-761.25,69.92,-179.36,-486.4
348969.9776,58.682,-57.584,1015.65,-140.0,3500.0,-1198.75,59.28,-179.36,-487.92
348970.0276,51.423,-52.094,1013.637,647.5,2730.0,-1470.0,80.56,-177.84,-500.08
348970.0776,55.388,-52.094,1013.149,253.75,3027.5,-770.0,72.96,-176.32,-490.96
348970.1278,53.009,-50.203,1011.075,-393.75,2948.75,-271.25,59.28,-174.8,-503.12
348970.1776,55.327,-54.473,1012.844,-446.25,2773.75,-481.25,77.52,-168.72,-501.6
348970.2277,59.841,-55.571,1016.138,-262.5,2213.75,-787.5,63.84,-168.72,-497.04
348970.2776,61.793,-57.767,1013.21,183.75,2756.25,-822.5,66.88,-179.36,-477.28
348970.3277,58.133,-57.401,1015.528,577.5,2878.75,-700.0,69.92,-176.32,-489.44
