TimeStamp,ax,ay,az,gx,gy,gz,mx,my,mz
349002.8276,64.782,-141.886,971.73,5433.75,2021.25,1697.5,80.56,-136.8,-483.36
349002.8776,47.641,-126.392,1019.676,1391.25,4331.25,393.75,48.64,-135.28,-484.88
349002.9276,45.933,-159.759,1102.941,-9686.25,1531.25,2887.5,66.88,-138.32,-480.32
349002.9776,71.675,-219.295,1092.449,-11891.25,2493.75,3990.0,69.92,-127.68,-474.24
349003.0276,90.585,-230.153,1035.353,7743.75,5792.5,3115.0,59.28,-133.76,-477.28
349003.0776,48.434,-126.087,992.226,12398.75,12031.25,691.25,69.92,-129.2,-478.8
349003.1276,27.938,-72.285,997.838,14087.5,11252.5,-3176.25,80.56,-130.72,-474.24
349003.1776,5.551,-40.687,1018.09,7525.0,10675.0,-6230.0,72.96,-147.44,-487.92
349003.2276,7.503,-48.861,1027.789,7630.0,10106.25,-6256.25,80.56,-139.84,-500.08
349003.2776,-7.198,-24.095,1025.105,11156.25,7997.5,-6527.5,82.08,-148.96,-500.08
349003.3276,11.895,-3.599,1008.391,7682.5,4130.0,-7708.75,74.48,-148.96,-484.88
349003.3776,29.219,6.161,1004.792,4838.75,4103.75,-8846.25,79.04,-148.96,-501.6
349003.4276,46.055,-4.514,1003.511,-8.75,4803.75,-8312.5,91.2,-155.04,-484.88
349003.4776,43.371,-5.124,1004.182,-1181.25,3508.75,-6562.5,89.68,-165.68,-490.96
349003.5276,44.469,-27.816,1008.94,-7770.0,3893.75,-4620.0,79.04,-156.56,-500.08
349003.5776,35.99,-63.44,1009.062,-4445.0,-183.75,-5731.25,91.2,-148.96,-490.96
349003.6277,38.43,-39.65,1015.223,-5223.75,603.75,-8907.5,83.6,-167.2,-484.88
349003.6776,45.079,-22.326,1015.162,-6011.25,-3097.5,-8898.75,86.64,-171.76,-489.44
349003.7277,53.436,-67.527,1012.661,-13728.75,-192.5,-7892.5,74.48,-152.0,-497.04
349003.7776,71.126,-140.3,1008.086,-10272.5,393.75,-2607.5,74.48,-152.0,-481.84
349003.8276,67.588,-148.474,1012.783,1067.5,1636.25,-761.25,69.92,-159.6,-475.76
349003.8776,51.057,-83.997,1019.676,3036.25,7630.0,-437.5,68.4,-158.08,-481.84
349003.9277,25.437,-83.143,1005.89,630.0,6711.25,2213.75,71.44,-155.04,-495.52
349003.9776,23.973,-69.662,1004.853,-586.25,5976.25,1076.25,94.24,-153.52,-477.28
349004.0276,-2.623,-105.469,1019.615,-7122.5,4900.0,-2082.5,82.08,-142.88,-500.08
349004.0776,19.154,-137.738,1017.907,-5425.0,2590.0,-2388.75,83.6,-145.92,-480.32
349004.1276,23.424,-92.354,1022.116,1575.0,-490.0,-4978.75,74.48,-158.08,-484.88
349004.1776,52.521,-68.381,1007.354,-490.0,-1225.0,-875.0,71.44,-144.4,-489.44
349004.2276,67.039,-63.501,994.849,962.5,-656.25,3543.75,74.48,-148.96,-497.04
349004.2776,57.523,-52.582,984.296,-2073.75,5573.75,6615.0,92.72,-155.04,-471.2
349004.3276,25.681,-67.71,1003.572,-7525.0,6291.25,7262.5,76.0,-150.48,-478.8
349004.3776,20.313,-133.407,1020.652,-7376.25,4200.0,7341.25,69.92,-138.32,-487.92
349004.4276,26.23,-145.363,1031.266,-3132.5,1478.75,6798.75,82.08,-139.84,-472.72
349004.4776,38.674,-142.069,1031.693,1050.0,1190.0,6002.5,91.2,-124.64,-483.36
349004.5276,33.855,-110.532,1019.737,4252.5,1723.75,3797.5,74.48,-130.72,-494.0
349004.5776,34.709,-91.012,1007.903,5066.25,2003.75,1960.0,72.96,-132.24,-489.44
349004.6276,30.317,-83.57,1000.705,647.5,621.25,2012.5,85.12,-139.84,-478.8
349004.6776,60.268,-102.358,1004.304,-472.5,-568.75,2143.75,94.24,-141.36,-489.44
349004.7276,68.015,-91.5,1015.223,2450.0,2178.75,236.25,74.48,-138.32,-487.92
349004.7776,57.767,-57.95,1009.977,1916.25,6457.5,-1163.75,86.64,-144.4,-483.36
349004.8276,32.391,-66.978,1004.182,-463.75,7236.25,-2607.5,69.92,-139.84,-481.84
349004.8776,9.272,-88.084,1001.132,-3570.0,4068.75,-3640.0,74.48,-135.28,-494.0
349004.9276,21.899,-113.765,1011.258,-5311.25,953.75,-3115.0,79.04,-132.24,-487.92
349004.9776,29.768,-130.723,1016.321,-5818.75,1120.0,-1566.25,80.56,-142.88,-483.36
349005.0276,44.774,-138.104,1024.983,-761.25,490.0,218.75,77.52,-139.84,-472.72
349005.0776,50.63,-130.601,1021.506,1041.25,778.75,813.75,74.48,-133.76,-477.28
349005.1276,54.046,-116.449,1002.23,2117.5,2161.25,-17.5,77.52,-135.28,-490.96
349005.1776,42.517,-103.151,1001.132,805.0,3246.25,-1435.0,85.12,-141.36,-474.24
349005.2276,34.465,-104.615,1005.158,-210.0,3088.75,866.25,50.16,-129.2,-483.36
349005.2776,27.145,-105.408,1012.051,-848.75,1163.75,2800.0,74.48,-126.16,-487.92
349005.3276,43.066,-111.569,1010.831,542.5,953.75,2485.0,91.2,-141.36,-480.32
349005.3776,49.898,-105.103,1010.831,-402.5,1268.75,516.25,80.56,-135.28,-480.32
349005.4276,70.15,-102.968,1009.611,-726.25,1968.75,-507.5,77.52,-133.76,-500.08
349005.4776,66.49,-92.049,1007.232,-4357.5,8400.0,-166.25,89.68,-121.6,-478.8
349005.5276,24.522,-127.063,1011.746,-2257.5,8155.0,-297.5,88.16,-138.32,-471.2
349005.5776,15.189,-120.048,1009.977,-402.5,4550.0,-1986.25,79.04,-133.76,-480.32
349005.6276,35.929,-112.606,1007.11,-542.5,1680.0,-4733.75,68.4,-130.72,-492.48
349005.6776,46.055,-110.715,1007.964,-1251.25,2651.25,-5503.75,82.08,-133.76,-477.28
349005.7276,53.863,-124.623,1004.182,-1531.25,4663.75,-6422.5,83.6,-136.8,-472.72
349005.7776,32.574,-119.926,1009.062,-1671.25,5223.75,-4777.5,79.04,-129.2,-490.96
349005.8276,17.995,-112.972,1011.319,-3500.0,4287.5,-3053.75,76.0,-127.68,-497.04
349005.8776,25.742,-133.468,1006.012,201.25,1872.5,-2240.0,97.28,-132.24,-478.8
349005.9276,31.415,-117.669,1006.439,-490.0,840.0,-2695.0,60.8,-132.24,-480.32
349005.9776,51.545,-126.392,1007.903,-630.0,1557.5,-2047.5,68.4,-135.28,-495.52
349006.0276,40.87,-123.891,1007.659,-2275.0,3185.0,78.75,80.56,-129.2,-490.96
349006.0776,39.772,-128.039,1006.134,-455.0,3710.0,927.5,85.12,-133.76,-469.68
349006.1276,40.199,-127.124,1009.428,-918.75,2826.25,-201.25,80.56,-132.24,-466.64
349006.1776,52.765,-132.98,1003.633,-1732.5,3990.0,-2152.5,63.84,-129.2,-487.92
349006.2276,33.794,-128.283,1005.158,-1417.5,4821.25,-5626.25,79.04,-129.2,-481.84
349006.2776,33.062,-128.954,1010.709,-1557.5,3552.5,-3963.75,74.48,-138.32,-481.84
349006.3276,32.757,-133.956,1008.391,-1233.75,3036.25,-2616.25,80.56,-129.2,-475.76
349006.3776,39.467,-135.176,1006.317,105.0,2607.5,577.5,82.08,-133.76,-480.32
349006.4276,41.419,-130.906,1004.975,-148.75,2633.75,1741.25,77.52,-135.28,-478.8
349006.4776,35.99,-130.418,1005.463,297.5,2581.25,1146.25,74.48,-133.76,-468.16
349006.5276,43.493,-126.209,1004.853,743.75,3263.75,516.25,82.08,-121.6,-487.92
349006.5776,33.855,-125.416,1006.5,166.25,3246.25,-175.0,85.12,-135.28,-469.68
349006.6276,42.822,-126.453,1000.156,-525.0,3508.75,358.75,83.6,-130.72,-478.8
349006.6776,42.334,-128.71,1005.341,-1408.75,4147.5,35.0,69.92,-127.68,-471.2
349006.7276,32.452,-134.383,1008.818,-1137.5,4173.75,-918.75,68.4,-130.72,-489.44
349006.7776,28.609,-141.276,1012.051,-1260.0,3876.25,-1443.75,85.12,-127.68,-480.32
349006.8276,27.572,-134.932,1007.171,778.75,3727.5,-717.5,68.4,-129.2,-477.28
349006.8778,32.086,-129.991,1006.317,883.75,3211.25,796.25,77.52,-132.24,-486.4
349006.9276,33.794,-121.085,1004.914,262.5,3281.25,1093.75,94.24,-121.6,-480.32
349006.9777,34.099,-119.804,1006.683,-2327.5,3351.25,140.0,82.08,-123.12,-480.32
349007.0276,29.463,-133.468,1000.034,-4200.0,4471.25,-227.5,76.0,-129.2,-487.92
349007.0777,26.657,-141.642,1008.33,-2712.5,4462.5,236.25,72.96,-124.64,-490.96
349007.1276,26.718,-150.731,1008.696,-2108.75,4418.75,1163.75,88.16,-121.6,-469.68
349007.1776,24.827,-152.988,1008.086,-218.75,4506.25,743.75,74.48,-120.08,-481.84
349007.2276,20.191,-145.485,1004.67,997.5,3640.0,-288.75,83.6,-120.08,-481.84
349007.2776,18.849,-133.529,1007.842,1102.5,3053.75,-1233.75,86.64,-120.08,-487.92
349007.3276,24.461,-140.91,1003.45,-831.25,2730.0,-1207.5,74.48,-126.16,-468.16
349007.3776,24.461,-145.18,1001.559,-2003.75,3053.75,-1155.0,77.52,-117.04,-486.4
349007.4276,24.583,-149.694,1006.683,35.0,2546.25,-1452.5,72.96,-121.6,-486.4
349007.4776,24.095,-143.838,1009.55,-201.25,2887.5,-1163.75,91.2,-127.68,-484.88
349007.5276,29.28,-143.106,1005.219,-533.75,3018.75,-498.75,79.04,-123.12,-480.32
349007.5776,17.751,-142.984,1006.439,682.5,2791.25,-1093.75,88.16,-118.56,-492.48
349007.6276,24.888,-139.995,1004.975,-630.0,2563.75,-1338.75,79.04,-120.08,-481.84
349007.6776,29.28,-139.385,1001.498,70.0,2528.75,-665.0,92.72,-117.04,-492.48
349007.7276,21.899,-156.465,1010.16,665.0,2808.75,-743.75,82.08,-121.6,-487.92
349007.7776,18.056,-147.193,1005.951,2196.25,2738.75,-1120.0,71.44,-130.72,-489.44
349007.8276,24.888,-136.823,1006.805,962.5,1968.75,-393.75,85.12,-126.16,-480.32
349007.8776,32.391,-137.677,1003.877,-1023.75,2563.75,551.25,85.12,-121.6,-481.84
349007.9276,27.328,-139.751,1005.341,-1137.5,3115.0,358.75,74.48,-115.52,-498.56
349007.9776,22.814,-146.278,1008.513,227.5,2686.25,52.5,82.08,-130.72,-480.32
349008.0276,18.239,-137.86,1008.696,-332.5,1706.25,1286.25,79.04,-121.6,-474.24
349008.0776,24.461,-150.06,1002.596,1356.25,402.5,2038.75,82.08,-121.6,-475.76
349008.1276,39.345,-139.446,1002.718,-1111.25,1102.5,1767.5,77.52,-112.48,-469.68
349008.1776,40.626,-147.315,1006.317,-253.75,3403.75,472.5,85.12,-121.6,-475.76
349008.2276,23.241,-138.409,1004.365,-463.75,2983.75,-411.25,88.16,-114.0,-483.36
349008.2776,34.404,-138.653,1001.376,-271.25,2896.25,-446.25,91.2,-126.16,-494.0
349008.3276,24.461,-140.117,1003.938,-586.25,2896.25,-218.75,88.16,-127.68,-478.8
349008.3776,30.195,-146.461,1006.805,-1216.25,3001.25,148.75,80.56,-124.64,-478.8
349008.4276,29.646,-145.607,1007.659,-603.75,3841.25,-61.25,76.0,-120.08,-469.68
349008.4776,22.692,-145.302,1004.792,-1015.0,3613.75,87.5,100.32,-112.48,-478.8
349008.5276,18.788,-145.058,1001.62,-332.5,3185.0,-87.5,85.12,-123.12,-468.16
349008.5776,23.546,-151.768,1002.352,-647.5,2030.0,-17.5,85.12,-120.08,-489.44
349008.6276,26.352,-145.241,1003.938,-1251.25,1548.75,315.0,68.4,-123.12,-463.6
349008.6776,36.173,-152.378,1007.659,-1750.0,2283.75,218.75,82.08,-112.48,-474.24
349008.7276,27.572,-157.319,1003.511,-358.75,2607.5,-1085.0,71.44,-117.04,-477.28
349008.7776,35.38,-152.561,1002.535,-297.5,2782.5,-1435.0,74.48,-114.0,-480.32
349008.8276,26.413,-150.975,1007.354,-822.5,2878.75,-945.0,82.08,-117.04,-480.32
349008.8776,32.574,-155.855,1001.437,-341.25,2642.5,-288.75,91.2,-123.12,-481.84
349008.9276,30.683,-156.343,1004.609,-358.75,2861.25,-131.25,74.48,-118.56,-481.84
349008.9776,26.901,-157.014,1006.195,743.75,2800.0,-770.0,83.6,-127.68,-487.92
349009.0276,27.328,-150.548,1006.805,743.75,2511.25,-612.5,89.68,-121.6,-484.88
349009.0776,28.792,-146.522,1005.097,560.0,2975.0,-393.75,83.6,-114.0,-484.88
349009.1276,23.668,-147.071,1003.145,201.25,2205.0,-253.75,72.96,-121.6,-494.0
349009.1776,37.21,-150.304,1002.474,-647.5,2843.75,-157.5,77.52,-123.12,-483.36
349009.2276,32.696,-154.025,1004.548,-411.25,3228.75,-542.5,92.72,-121.6,-475.76
349009.2776,25.498,-152.744,1005.646,-376.25,2931.25,-1225.0,72.96,-118.56,-489.44
349009.3276,26.352,-150.731,1003.694,-297.5,2931.25,-1338.75,80.56,-124.64,-474.24
349009.3776,27.389,-148.962,1002.657,-420.0,2450.0,-586.25,88.16,-114.0,-480.32
349009.4276,29.89,-160.369,1004.609,-455.0,2336.25,-210.0,83.6,-120.08,-472.72
349009.4776,34.343,-154.147,1003.267,0.0,1977.5,43.75,72.96,-124.64,-480.32
349009.5276,35.258,-154.147,1003.389,192.5,2625.0,-218.75,80.56,-118.56,-483.36
349009.5776,36.417,-152.256,1006.378,787.5,2721.25,-157.5,76.0,-120.08,-472.72
349009.6276,42.7,-145.607,1002.596,-175.0,3596.25,-533.75,77.52,-117.04,-480.32
349009.6776,32.696,-155.001,1002.84,-918.75,3342.5,-971.25,85.12,-114.0,-487.92
349009.7276,35.197,-158.417,999.302,-140.0,3473.75,-1023.75,92.72,-117.04,-471.2
349009.7776,30.439,-158.844,1004.121,35.0,3342.5,-980.0,76.0,-120.08,-481.84
349009.8276,27.511,-148.23,1009.428,192.5,2905.0,-831.25,92.72,-110.96,-475.76
349009.8776,32.513,-152.622,1003.267,-35.0,2135.0,-1260.0,83.6,-117.04,-478.8
349009.9276,35.624,-152.805,1001.071,-8.75,3167.5,-1898.75,85.12,-123.12,-483.36
349009.9776,32.33,-152.378,1004.06,-236.25,3710.0,-892.5,80.56,-120.08,-480.32
349010.0276,29.341,-154.33,1005.707,17.5,3666.25,-656.25,83.6,-120.08,-477.28
349010.0776,30.012,-156.099,1003.45,-315.0,3736.25,-1312.5,83.6,-120.08,-465.12
349010.1276,25.01,-153.964,1000.888,-262.5,3543.75,-1531.25,82.08,-115.52,-484.88
349010.1776,23.424,-158.112,1002.84,-638.75,3473.75,-1093.75,77.52,-112.48,-494.0
349010.2278,23.302,-153.781,1000.644,-883.75,3150.0,-542.5,82.08,-121.6,-477.28
349010.2776,23.729,-157.319,1001.803,-1347.5,2345.0,-61.25,79.04,-117.04,-487.92
349010.3277,27.084,-162.748,1005.28,-245.0,1968.75,-166.25,80.56,-123.12,-494.0
349010.3776,35.136,-160.857,1006.012,-393.75,2511.25,-892.5,88.16,-117.04,-478.8
349010.4276,34.709,-156.587,1001.803,770.0,2905.0,-796.25,91.2,-121.6,-484.88
349010.4776,29.158,-153.659,1005.463,-297.5,3325.0,-1076.25,85.12,-106.4,-477.28
349010.5276,30.683,-163.48,1001.01,-227.5,2485.0,-805.0,92.72,-121.6,-480.32
349010.5776,32.33,-157.197,1001.254,-253.75,2432.5,-236.25,94.24,-118.56,-472.72
349010.6276,35.746,-166.835,1004.853,-52.5,3316.25,-122.5,82.08,-112.48,-462.08
349010.6776,24.278,-156.038,1005.28,131.25,2983.75,-595.0,69.92,-121.6,-484.88
349010.7276,34.221,-158.234,1003.755,70.0,2590.0,-875.0,89.68,-107.92,-483.36
349010.7776,27.938,-158.356,1002.108,8.75,2957.5,-945.0,77.52,-110.96,-472.72
349010.8276,32.025,-150.182,1003.084,-586.25,2563.75,-323.75,79.04,-117.04,-475.76
349010.8776,40.077,-161.65,1000.522,-2056.25,3832.5,-743.75,86.64,-101.84,-475.76
349010.9276,22.936,-169.763,1003.45,131.25,4278.75,-1347.5,94.24,-117.04,-465.12
349010.9776,19.459,-165.432,1004.853,463.75,3018.75,-2170.0,76.0,-124.64,-475.76
349011.028,27.023,-158.905,1001.01,953.75,2808.75,-1137.5,80.56,-118.56,-484.88
349011.0776,27.755,-158.722,999.729,122.5,3088.75,78.75,80.56,-118.56,-478.8
349011.1276,25.681,-157.746,1000.766,-1120.0,2563.75,481.25,71.44,-118.56,-457.52
349011.1776,32.269,-162.077,1002.596,-1155.0,2625.0,-490.0,83.6,-120.08,-477.28
349011.2276,31.903,-171.044,1002.413,-778.75,3193.75,-1251.25,88.16,-117.04,-481.84
349011.2776,30.378,-164.822,1004.121,455.0,3281.25,-1951.25,88.16,-115.52,-480.32
349011.3276,25.437,-158.844,1004.06,-78.75,3316.25,-2047.5,80.56,-120.08,-484.88
349011.3776,34.16,-165.31,999.302,218.75,2983.75,-840.0,76.0,-107.92,-469.68
349011.4276,30.378,-166.591,999.79,-910.0,3508.75,-341.25,94.24,-127.68,-477.28
349011.4776,26.413,-167.567,1001.498,183.75,3150.0,-831.25,77.52,-120.08,-471.2
349011.5276,23.424,-168.97,1006.317,-306.25,2703.75,-1032.5,88.16,-114.0,-490.96
349011.5776,29.951,-166.286,1002.535,612.5,2765.0,-796.25,91.2,-118.56,-475.76
349011.6276,27.694,-160.796,999.058,-122.5,2660.0,-507.5,69.92,-110.96,-469.68
349011.6776,31.842,-166.042,1004.365,-533.75,2835.0,-665.0,80.56,-101.84,-483.36
349011.7276,33.428,-164.578,1003.084,-70.0,3158.75,-953.75,86.64,-103.36,-487.92
349011.7776,25.681,-165.066,1003.084,271.25,3115.0,-1102.5,79.04,-117.04,-487.92
349011.8276,28.304,-164.883,1000.583,-131.25,2975.0,-910.0,86.64,-118.56,-468.16
349011.8776,25.376,-159.942,1002.596,-26.25,2703.75,-533.75,79.04,-104.88,-481.84
349011.9276,29.646,-165.554,1002.657,-175.0,2756.25,131.25,83.6,-106.4,-477.28
349011.9776,27.816,-168.116,1002.474,-61.25,2712.5,-35.0,77.52,-104.88,-466.64
349012.0276,42.395,-166.591,1000.766,61.25,3141.25,787.5,76.0,-112.48,-481.84
349012.0776,60.512,-161.711,997.167,61.25,6842.5,5556.25,85.12,-115.52,-483.36
349012.1276,10.614,-165.615,999.973,883.75,8916.25,6938.75,107.92,-114.0,-460.56
349012.1776,-7.747,-160.674,1004.243,848.75,6098.75,2791.25,82.08,-104.88,-483.36
349012.2276,6.039,-157.38,1002.352,-472.5,796.25,-3508.75,74.48,-109.44,-481.84
349012.2776,25.01,-160.796,997.472,-533.75,1750.0,-2625.0,82.08,-115.52,-487.92
349012.3276,27.389,-166.286,1000.888,-1653.75,2616.25,-1067.5,88.16,-101.84,-465.12
349012.3776,12.688,-170.068,1007.171,-603.75,3771.25,630.0,85.12,-112.48,-468.16
349012.4276,5.429,-170.983,1007.354,-455.0,2056.25,-52.5,85.12,-109.44,-477.28
349012.4776,24.766,-166.774,1000.522,883.75,1522.5,-997.5,88.16,-114.0,-474.24
349012.5276,23.302,-159.637,1001.071,-507.5,3036.25,-87.5,83.6,-104.88,-474.24
349012.5776,20.191,-165.981,1004.121,-1093.75,2966.25,-245.0,82.08,-112.48,-466.64
349012.6276,17.446,-169.763,1001.437,-218.75,2826.25,-1321.25,86.64,-114.0,-481.84
349012.6776,16.47,-167.201,1002.413,-621.25,3001.25,-1645.0,104.88,-114.0,-494.0
349012.7276,18.056,-169.031,998.631,-280.0,2730.0,-656.25,85.12,-115.52,-469.68
349012.7776,23.302,-169.763,1002.474,-122.5,2493.75,-17.5,74.48,-107.92,-487.92
349012.8276,22.509,-167.506,1002.474,-52.5,2528.75,-140.0,85.12,-114.0,-477.28
349012.8776,23.485,-174.521,1004.365,420.0,2406.25,-638.75,82.08,-106.4,-481.84
349012.9276,23.058,-167.567,1003.572,-315.0,2625.0,-621.25,91.2,-106.4,-477.28
349012.9776,22.936,-172.142,1000.4,-192.5,2467.5,-306.25,91.2,-106.4,-483.36
349013.0276,22.875,-164.517,995.154,-87.5,2642.5,-280.0,97.28,-107.92,-483.36
349013.0776,32.269,-159.698,994.91,-875.0,3150.0,376.25,82.08,-112.48,-471.2
349013.1276,21.777,-168.421,1002.779,-2660.0,3657.5,866.25,82.08,-109.44,-477.28
349013.1776,16.836,-183.61,1005.951,-1925.0,3403.75,-341.25,89.68,-103.36,-468.16
349013.2276,21.716,-181.048,1002.596,-481.25,1995.0,-1461.25,85.12,-109.44,-474.24
349013.2776,29.829,-174.948,1001.376,778.75,3578.75,813.75,77.52,-115.52,-478.8
349013.3276,17.69,-169.702,1002.047,385.0,3517.5,1242.5,83.6,-114.0,-483.36
349013.3776,21.777,-169.092,998.997,35.0,2738.75,-87.5,94.24,-112.48,-480.32
349013.4276,28.121,-166.652,998.57,-1758.75,3438.75,-192.5,83.6,-107.92,-474.24
349013.4776,20.679,-181.109,1006.012,-350.0,5101.25,1365.0,91.2,-112.48,-490.96
349013.5276,6.344,-183.854,1005.829,-148.75,4331.25,1575.0,86.64,-106.4,-481.84
349013.5778,14.518,-181.597,1001.254,2205.0,2152.5,-61.25,89.68,-101.84,-469.68
349013.6276,23.119,-165.615,999.119,1715.0,2948.75,-271.25,86.64,-107.92,-478.8
349013.6777,19.52,-160.491,999.485,542.5,2905.0,-297.5,89.68,-103.36,-486.4
349013.7276,19.154,-167.384,999.119,-52.5,2598.75,-1286.25,92.72,-112.48,-469.68
349013.7778,19.032,-169.214,1002.108,-236.25,2703.75,-1050.0,82.08,-107.92,-474.24
349013.8276,17.263,-173.85,1003.816,96.25,2528.75,-927.5,77.52,-110.96,-486.4
349013.8776,15.921,-172.508,1001.62,227.5,2100.0,-1216.25,92.72,-98.8,-474.24
349013.9276,28.548,-165.554,997.106,1067.5,2222.5,-822.5,89.68,-115.52,-490.96
349013.9776,19.276,-159.637,1003.328,621.25,2283.75,-236.25,89.68,-110.96,-490.96
349014.0276,25.193,-166.164,998.875,253.75,1925.0,516.25,86.64,-103.36,-477.28
349014.0776,27.877,-173.362,1004.853,-2948.75,2983.75,-8.75,95.76,-101.84,-463.6
349014.1276,24.766,-185.806,1005.768,-367.5,2870.0,-1321.25,88.16,-115.52,-456.0
349014.1776,22.448,-179.401,1003.084,17.5,2782.5,-1452.5,83.6,-112.48,-494.0
349014.2276,22.326,-168.604,999.058,-358.75,3465.0,-700.0,91.2,-104.88,-475.76
349014.2776,10.614,-169.58,998.265,-306.25,2738.75,542.5,80.56,-106.4,-474.24
349014.3276,14.518,-173.301,1001.315,-761.25,1828.75,1750.0,82.08,-100.32,-463.6
349014.3776,25.376,-175.863,1003.877,0.0,1925.0,761.25,86.64,-107.92,-469.68
349014.4276,28.487,-177.571,1002.108,26.25,2301.25,-376.25,101.84,-117.04,-468.16
349014.4776,30.012,-174.887,999.424,-35.0,2677.5,-1601.25,98.8,-114.0,-475.76
349014.5276,25.681,-173.789,998.204,-280.0,3456.25,-1723.75,86.64,-103.36,-494.0
349014.5776,18.239,-175.131,1000.583,-140.0,2695.0,-1618.75,85.12,-100.32,-468.16
349014.6276,21.045,-180.194,998.936,-586.25,1942.5,-1225.0,83.6,-94.24,-462.08
349014.6776,25.986,-176.656,1002.657,-280.0,2240.0,-1015.0,88.16,-114.0,-481.84
349014.7276,26.596,-179.706,998.692,166.25,2485.0,-717.5,97.28,-101.84,-481.84
349014.7776,24.217,-173.362,999.973,201.25,2913.75,-1513.75,79.04,-114.0,-480.32
349014.8276,30.988,-185.44,1001.01,-595.0,1802.5,-1198.75,72.96,-126.16,-483.36
349014.8776,36.356,-181.353,995.52,446.25,2791.25,-910.0,88.16,-100.32,-474.24
349014.9276,29.768,-179.096,998.448,-778.75,3377.5,87.5,86.64,-118.56,-480.32
349014.9776,20.74,-175.009,1000.278,-52.5,2852.5,-656.25,91.2,-101.84,-469.68
349015.0276,31.293,-175.192,997.228,-157.5,2502.5,-840.0,82.08,-103.36,-483.36
349015.0776,26.352,-172.081,999.912,-726.25,3281.25,-1260.0,74.48,-100.32,-474.24
349015.1276,27.45,-176.717,1000.888,-586.25,3158.75,-927.5,88.16,-110.96,-457.52
349015.1776,31.476,-186.294,999.546,-533.75,3535.0,-402.5,88.16,-101.84,-472.72
349015.2276,25.132,-180.072,999.424,122.5,3648.75,-875.0,85.12,-104.88,-477.28
349015.2776,27.572,-178.181,998.204,-52.5,3473.75,-1286.25,88.16,-114.0,-462.08
349015.3276,22.692,-178.547,998.936,-78.75,3456.25,-1925.0,86.64,-100.32,-472.72
349015.3776,22.814,-181.963,998.997,-175.0,3403.75,-1723.75,79.04,-112.48,-478.8
349015.4276,25.925,-184.22,1002.779,-358.75,3473.75,-778.75,88.16,-118.56,-474.24
349015.4776,21.96,-182.878,1000.522,-78.75,3211.25,-603.75,91.2,-114.0,-468.16
349015.5276,22.631,-184.159,998.936,262.5,2843.75,-787.5,83.6,-104.88,-469.68
349015.5776,28.914,-182.085,998.814,1408.75,3753.75,-1041.25,80.56,-112.48,-475.76
349015.6276,18.544,-172.447,1001.681,402.5,3587.5,-1085.0,88.16,-101.84,-478.8
349015.6776,22.997,-174.826,995.947,-78.75,3272.5,-1155.0,88.16,-100.32,-480.32
349015.7276,23.546,-184.586,1000.888,96.25,4532.5,-630.0,83.6,-104.88,-481.84
349015.7776,17.141,-172.508,1002.901,157.5,5416.25,192.5,83.6,-109.44,-486.4
349015.8276,3.538,-178.547,1002.535,516.25,3176.25,-533.75,85.12,-117.04,-472.72
349015.8776,13.42,-171.837,998.57,-140.0,2056.25,-1662.5,86.64,-114.0,-475.76
349015.9276,23.668,-179.218,999.607,-253.75,1662.5,-1846.25,82.08,-103.36,-494.0
349015.9776,28.243,-183.427,1000.705,-568.75,3053.75,227.5,97.28,-103.36,-474.24
349016.0276,22.021,-182.39,1002.535,-122.5,3307.5,-183.75,74.48,-103.36,-474.24
349016.0776,18.971,-179.95,1000.522,-96.25,2353.75,-1881.25,92.72,-104.88,-480.32
349016.1276,23.058,-184.586,997.289,551.25,2423.75,-1627.5,86.64,-104.88,-475.76
349016.1776,21.716,-174.033,995.947,-122.5,2485.0,192.5,88.16,-109.44,-457.52
349016.2276,26.413,-177.632,997.777,-271.25,3027.5,726.25,79.04,-107.92,-463.6
349016.2776,22.387,-178.974,998.509,-848.75,3080.0,43.75,91.2,-97.28,-487.92
349016.3276,25.01,-185.379,998.387,-525.0,3062.5,-778.75,83.6,-107.92,-487.92
349016.3776,26.474,-183.366,1002.962,-201.25,3482.5,-743.75,80.56,-103.36,-478.8
349016.4276,23.607,-174.765,998.387,840.0,3648.75,-918.75,92.72,-103.36,-484.88
349016.4776,16.287,-172.691,1000.156,-437.5,3412.5,-787.5,83.6,-100.32,-474.24
349016.5276,20.923,-178.974,992.104,315.0,2983.75,-735.0,97.28,-110.96,-480.32
349016.5776,17.507,-184.342,999.241,-1155.0,2756.25,-542.5,88.16,-101.84,-474.24
349016.6276,19.581,-185.867,1000.156,61.25,2660.0,-297.5,82.08,-100.32,-472.72
349016.6776,22.875,-181.841,999.912,218.75,2502.5,-43.75,86.64,-110.96,-466.64
349016.7276,25.193,-184.22,999.851,472.5,2878.75,-236.25,95.76,-115.52,-480.32
349016.7776,20.374,-184.525,1000.278,638.75,3438.75,0.0,86.64,-98.8,-484.88
349016.8276,16.836,-182.207,999.363,1303.75,2371.25,-1286.25,82.08,-112.48,-480.32
349016.8776,27.145,-177.388,998.326,1216.25,2730.0,-1636.25,86.64,-100.32,-463.6
349016.9278,20.862,-174.338,996.984,630.0,3062.5,-1120.0,76.0,-106.4,-480.32
349016.9776,19.398,-174.948,997.838,498.75,3106.25,-1181.25,79.04,-97.28,-490.96
349017.0277,23.424,-170.922,995.215,341.25,2957.5,-1146.25,95.76,-115.52,-475.76
349017.0776,14.457,-177.083,1002.596,-306.25,3412.5,-971.25,92.72,-110.96,-465.12
349017.1277,14.701,-173.667,1002.596,-927.5,2913.75,-1216.25,82.08,-97.28,-468.16
349017.1776,21.045,-182.451,999.729,-437.5,2983.75,-1470.0,91.2,-104.88,-480.32
349017.2276,22.875,-181.048,1002.413,-280.0,3307.5,-918.75,97.28,-103.36,-471.2
349017.2776,22.326,-174.216,1000.339,708.75,3211.25,-717.5,91.2,-104.88,-475.76
349017.3276,16.47,-175.741,1001.681,-1347.5,2441.25,-385.0,82.08,-109.44,-471.2
349017.3776,28.426,-186.233,995.947,-507.5,3080.0,-665.0,80.56,-107.92,-466.64
349017.4276,19.825,-183.793,998.204,-210.0,3263.75,-796.25,97.28,-104.88,-471.2
349017.4776,20.862,-185.806,999.241,262.5,3246.25,-892.5,92.72,-101.84,-474.24
349017.5276,15.555,-177.083,998.814,481.25,2292.5,-341.25,89.68,-112.48,-495.52
349017.5776,23.424,-178.547,994.361,481.25,3307.5,-621.25,91.2,-104.88,-481.84
349017.6276,16.897,-176.046,999.485,-61.25,3185.0,-927.5,86.64,-112.48,-465.12
349017.6776,17.324,-175.558,998.509,-472.5,3027.5,-1688.75,89.68,-109.44,-484.88
349017.7276,20.313,-178.425,1002.23,-315.0,3132.5,-1330.0,83.6,-101.84,-477.28
349017.7776,15.982,-177.815,999.668,341.25,3027.5,-743.75,95.76,-101.84,-474.24
349017.8276,15.189,-175.131,998.997,288.75,2598.75,-708.75,85.12,-103.36,-481.84
349017.8776,20.984,-175.07,998.448,-542.5,2660.0,-463.75,80.56,-106.4,-481.84
349017.9276,23.241,-177.754,999.607,-953.75,2861.25,-682.5,91.2,-104.88,-489.44
349017.9776,22.326,-186.782,1000.644,-1155.0,2913.75,-1085.0,95.76,-95.76,-475.76
349018.0276,19.764,-187.636,1001.193,-341.25,3412.5,-1067.5,82.08,-115.52,-474.24
349018.0776,18.178,-185.379,997.899,778.75,2808.75,-857.5,77.52,-100.32,-483.36
349018.1276,19.52,-172.63,1001.254,-175.0,3333.75,-1225.0,89.68,-100.32,-469.68
349018.1776,21.106,-184.281,995.886,-918.75,2948.75,-428.75,89.68,-112.48,-465.12
349018.2276,19.947,-187.148,997.838,-840.0,3438.75,-525.0,77.52,-95.76,-481.84
349018.2776,18.666,-188.856,1001.925,280.0,3228.75,-621.25,88.16,-103.36,-477.28
349018.3276,17.019,-181.414,1001.132,630.0,3351.25,-752.5,97.28,-104.88,-471.2
349018.3776,22.936,-185.806,997.228,490.0,2843.75,-630.0,94.24,-101.84,-477.28
349018.4276,12.993,-177.388,997.228,8.75,2651.25,-752.5,83.6,-103.36,-483.36
349018.4776,18.178,-182.634,995.703,-385.0,2467.5,-673.75,100.32,-95.76,-466.64
349018.5276,23.607,-179.706,1000.827,218.75,3298.75,-507.5,97.28,-104.88,-472.72
349018.5776,17.324,-179.279,1000.278,-542.5,3377.5,-901.25,86.64,-103.36,-477.28
349018.6276,16.836,-185.867,997.838,140.0,2712.5,-1767.5,83.6,-97.28,-498.56
349018.6776,24.034,-179.035,999.119,-157.5,2887.5,-682.5,103.36,-106.4,-474.24
349018.7276,26.169,-181.048,999.607,-236.25,3246.25,87.5,76.0,-109.44,-477.28
349018.7776,17.08,-172.874,999.241,-918.75,2581.25,78.75,83.6,-109.44,-481.84
349018.8276,23.302,-192.821,996.313,-2362.5,3097.5,-297.5,86.64,-103.36,-480.32
349018.8776,14.884,-182.634,999.79,-936.25,2660.0,-1435.0,80.56,-97.28,-454.48
349018.9276,22.814,-192.272,995.886,350.0,2992.5,-1128.75,97.28,-103.36,-478.8
349018.9776,25.559,-184.037,998.326,848.75,4156.25,-840.0,76.0,-103.36,-494.0
349019.0276,13.542,-189.161,997.167,236.25,3596.25,-1050.0,92.72,-100.32,-478.8
349019.0776,15.616,-179.706,995.398,883.75,2852.5,-1155.0,92.72,-104.88,-478.8
349019.1276,17.995,-190.442,1000.522,-1015.0,3587.5,-1023.75,94.24,-112.48,-490.96
349019.1776,14.213,-190.076,1001.498,-122.5,3517.5,-1391.25,95.76,-97.28,-477.28
349019.2276,17.873,-183.305,995.032,-210.0,2966.25,-953.75,89.68,-107.92,-475.76
349019.2776,16.47,-178.303,998.265,-805.0,3010.0,-761.25,83.6,-103.36,-480.32
349019.3276,15.616,-187.453,999.241,-980.0,2826.25,-595.0,91.2,-104.88,-480.32
349019.3776,19.825,-195.566,1000.095,-323.75,3018.75,-918.75,85.12,-100.32,-477.28
349019.4276,19.032,-191.235,999.485,787.5,2975.0,-1233.75,85.12,-97.28,-477.28
349019.4776,19.154,-184.098,997.472,35.0,2870.0,-1286.25,88.16,-94.24,-484.88
349019.5276,17.507,-180.621,996.984,-726.25,2966.25,-1023.75,91.2,-112.48,-477.28
349019.5776,18.666,-185.623,999.668,-857.5,2992.5,-621.25,88.16,-107.92,-459.04
349019.6276,18.605,-191.052,998.448,-551.25,2782.5,-577.5,79.04,-104.88,-474.24
349019.6776,17.446,-193.065,998.631,-297.5,2581.25,-761.25,95.76,-91.2,-477.28
349019.7276,24.4,-194.834,995.093,393.75,2467.5,-883.75,91.2,-114.0,-475.76
349019.7776,20.13,-189.405,995.764,988.75,2983.75,-1190.0,74.48,-92.72,-480.32
349019.8276,23.79,-183.0,997.777,1408.75,3062.5,-840.0,88.16,-112.48,-487.92
349019.8776,17.751,-180.316,999.729,-507.5,3465.0,-787.5,91.2,-106.4,-463.6
349019.9276,17.08,-186.05,993.934,-26.25,3132.5,-1408.75,101.84,-97.28,-477.28
349019.9776,20.191,-184.769,997.106,-1277.5,3018.75,-1785.0,82.08,-106.4,-483.36
349020.0276,15.372,-193.004,997.716,105.0,3316.25,-1750.0,92.72,-104.88,-483.36
349020.0776,16.47,-189.405,1001.071,113.75,3281.25,-1181.25,95.76,-98.8,-481.84
349020.1276,18.849,-184.525,995.032,595.0,2817.5,-385.0,65.36,-94.24,-462.08
349020.1776,19.337,-181.109,997.838,-8.75,3045.0,-96.25,88.16,-86.64,-486.4
349020.2276,20.252,-189.466,996.13,-726.25,2931.25,-192.5,91.2,-104.88,-477.28
349020.2776,22.326,-192.516,1000.4,236.25,3176.25,-831.25,89.68,-110.96,-472.72
349020.3276,14.701,-188.734,998.204,603.75,3115.0,-1207.5,82.08,-124.64,-474.24
349020.3777,13.664,-189.222,997.167,183.75,2966.25,-1435.0,101.84,-98.8,-474.24
349020.4276,18.666,-187.148,997.838,52.5,2773.75,-831.25,83.6,-107.92,-474.24
349020.4777,17.934,-186.172,997.167,-8.75,3027.5,-122.5,79.04,-100.32,-477.28
349020.5276,16.287,-186.355,998.814,52.5,2835.0,-17.5,92.72,-101.84,-474.24
349020.5776,17.751,-186.782,998.326,-288.75,2590.0,-533.75,95.76,-92.72,-469.68
349020.6276,22.936,-194.712,997.838,26.25,2878.75,-673.75,79.04,-104.88,-466.64
349020.6776,19.032,-190.381,996.74,542.5,3255.0,-761.25,76.0,-97.28,-486.4
349020.7276,20.374,-183.549,996.435,927.5,2878.75,-770.0,91.2,-101.84,-480.32
349020.7776,14.518,-179.645,1000.034,210.0,2922.5,-402.5,80.56,-97.28,-477.28
349020.8276,20.252,-187.453,994.666,-35.0,2861.25,-131.25,83.6,-103.36,-483.36
349020.8776,19.52,-190.503,999.119,-647.5,3027.5,-236.25,89.68,-98.8,-472.72
349020.9276,20.252,-192.699,998.936,428.75,3115.0,-507.5,95.76,-100.32,-477.28
349020.9776,15.372,-190.259,1002.901,245.0,2563.75,-463.75,95.76,-97.28,-481.84
349021.0276,20.496,-190.442,994.727,1111.25,2843.75,-367.5,79.04,-118.56,-477.28
349021.0776,14.884,-184.037,997.228,717.5,2581.25,-148.75,95.76,-114.0,-480.32
349021.1276,21.594,-185.013,996.679,192.5,2730.0,-481.25,95.76,-103.36,-478.8
349021.1776,20.13,-184.159,1000.156,516.25,3097.5,-673.75,92.72,-97.28,-472.72
349021.2276,17.019,-185.684,999.729,183.75,3080.0,-945.0,91.2,-106.4,-477.28
349021.2776,13.786,-183.976,999.607,218.75,2948.75,-1076.25,88.16,-101.84,-475.76
349021.3276,17.385,-182.573,995.642,131.25,2931.25,-630.0,88.16,-100.32,-475.76
349021.3776,18.483,-185.074,997.655,-402.5,3010.0,-393.75,89.68,-112.48,-492.48
349021.4276,18.178,-188.734,997.35,175.0,2975.0,-420.0,94.24,-94.24,-472.72
349021.4776,18.056,-191.235,1000.522,-8.75,2782.5,-805.0,88.16,-107.92,-474.24
349021.5276,21.045,-191.601,997.838,673.75,2887.5,-988.75,89.68,-106.4,-490.96
349021.5776,16.958,-181.963,995.642,1365.0,2362.5,-805.0,86.64,-100.32,-490.96
349021.6276,20.374,-173.362,996.862,551.25,3526.25,-726.25,79.04,-104.88,-457.52
349021.6776,15.555,-180.682,999.241,-245.0,3167.5,-367.5,92.72,-106.4,-471.2
349021.7276,17.324,-198.494,997.167,1058.75,2572.5,-770.0,82.08,-94.24,-481.84
349021.7776,20.008,-195.261,1002.169,3543.75,2065.0,-1706.25,94.24,-107.92,-478.8
349021.8276,21.594,-180.987,1003.572,3990.0,2581.25,-1303.75,89.68,-109.44,-469.68
349021.8776,19.093,-165.859,1001.254,3526.25,1960.0,-61.25,85.12,-100.32,-474.24
349021.9276,23.424,-165.859,996.313,1627.5,3220.0,175.0,88.16,-101.84,-494.0
349021.9776,20.801,-159.271,994.422,717.5,2808.75,-280.0,95.76,-110.96,-471.2
349022.0276,20.618,-158.6,998.448,-166.25,3062.5,-726.25,89.68,-110.96,-478.8
349022.0776,19.886,-165.005,1001.62,-1373.75,3097.5,-1155.0,80.56,-114.0,-494.0
349022.1276,19.337,-175.802,1003.267,-918.75,2975.0,-1513.75,79.04,-104.88,-469.68
349022.1776,20.984,-180.804,1000.217,-175.0,2887.5,-1321.25,74.48,-104.88,-478.8
349022.2276,17.751,-173.179,1000.278,245.0,3246.25,-700.0,80.56,-115.52,-481.84
349022.2776,20.618,-173.301,1000.766,227.5,2975.0,-411.25,89.68,-120.08,-483.36
349022.3276,19.337,-175.253,999.302,-428.75,2817.5,-516.25,104.88,-115.52,-481.84
349022.3776,20.069,-176.29,1001.193,-315.0,2563.75,-525.0,74.48,-101.84,-469.68
349022.4276,27.45,-176.656,999.363,743.75,2730.0,-323.75,76.0,-103.36,-477.28
349022.4776,15.433,-169.58,1004.731,-175.0,2625.0,-665.0,97.28,-100.32,-481.84
349022.5276,20.13,-180.682,999.302,385.0,2415.0,-953.75,77.52,-110.96,-466.64
349022.5776,23.485,-179.584,1000.766,-183.75,3587.5,-2415.0,71.44,-114.0,-477.28
349022.6276,25.864,-175.68,1001.62,1268.75,4060.0,-2345.0,71.44,-110.96,-460.56
349022.6776,9.821,-172.081,1002.596,997.5,3727.5,-1330.0,92.72,-110.96,-483.36
349022.7276,16.897,-160.857,1000.888,1408.75,2581.25,166.25,82.08,-120.08,-483.36
349022.7776,15.128,-163.175,1000.4,-157.5,2170.0,376.25,77.52,-114.0,-484.88
349022.8276,28.731,-167.018,1003.328,-376.25,2528.75,306.25,88.16,-112.48,-483.36
349022.8776,22.753,-173.179,1003.206,-542.5,3001.25,-411.25,89.68,-106.4,-474.24
349022.9276,20.008,-171.41,1004.365,96.25,2747.5,-1566.25,66.88,-98.8,-492.48
349022.9776,23.485,-169.397,1000.949,358.75,2397.5,-962.5,85.12,-112.48,-483.36
349023.0276,22.936,-166.286,999.119,-157.5,2826.25,-70.0,88.16,-101.84,-484.88
349023.0776,22.631,-168.726,999.424,-306.25,2406.25,70.0,76.0,-104.88,-475.76
349023.1276,23.79,-171.044,1001.62,-638.75,2257.5,-105.0,85.12,-110.96,-481.84
349023.1776,29.28,-175.924,1003.023,-612.5,3228.75,-332.5,88.16,-110.96,-478.8
349023.2276,20.435,-173.423,999.729,-332.5,3421.25,-516.25,89.68,-110.96,-474.24
349023.2776,33.611,-172.142,999.729,323.75,3403.75,-586.25,89.68,-103.36,-478.8
349023.3276,20.008,-175.802,1002.413,-498.75,5092.5,-210.0,80.56,-110.96,-500.08
349023.3776,12.566,-175.741,1000.034,218.75,4226.25,-875.0,80.56,-100.32,-465.12
349023.4276,15.372,-175.741,999.18,52.5,3193.75,-1802.5,82.08,-98.8,-483.36
349023.4776,20.069,-174.338,1002.657,140.0,4060.0,-1356.25,85.12,-110.96,-478.8
349023.5276,9.516,-169.58,1003.938,183.75,3263.75,-875.0,88.16,-117.04,-478.8
349023.5776,13.054,-168.848,1000.583,131.25,3561.25,-1601.25,89.68,-104.88,-481.84
349023.6276,11.712,-171.349,1002.84,-525.0,2266.25,-1120.0,92.72,-112.48,-480.32
349023.6776,24.583,-176.656,1001.01,-148.75,3648.75,-140.0,89.68,-101.84,-495.52
349023.7278,14.03,-174.765,1004.426,52.5,3745.0,-446.25,89.68,-107.92,-480.32
349023.7776,9.028,-170.434,997.533,393.75,2913.75,-1286.25,97.28,-107.92,-481.84
349023.8277,16.043,-170.068,997.228,-315.0,2913.75,-936.25,82.08,-110.96,-487.92
349023.8776,14.945,-170.19,1000.827,-262.5,3088.75,-288.75,86.64,-104.88,-484.88
349023.9277,12.688,-176.778,1002.596,-665.0,2467.5,-122.5,92.72,-97.28,-465.12
349023.9776,14.884,-177.083,1003.206,-323.75,1960.0,-323.75,91.2,-110.96,-487.92
349024.0276,18.239,-177.327,1003.816,-201.25,2476.25,-280.0,82.08,-112.48,-487.92
349024.0776,19.52,-172.447,1001.925,-87.5,3150.0,-595.0,94.24,-121.6,-475.76
349024.1276,20.374,-172.02,999.668,831.25,2852.5,-796.25,100.32,-106.4,-459.04
349024.1776,13.054,-160.613,1002.596,-752.5,3115.0,-1242.5,88.16,-114.0,-489.44
349024.2276,17.568,-176.839,1001.315,-945.0,2467.5,-918.75,95.76,-112.48,-468.16
349024.2776,20.74,-174.704,1002.535,-297.5,3115.0,-892.5,88.16,-114.0,-472.72
349024.3276,20.008,-174.033,1001.925,883.75,2975.0,-1505.0,79.04,-110.96,-472.72
349024.3776,17.446,-166.591,1001.62,665.0,3237.5,-1767.5,83.6,-110.96,-483.36
349024.4276,22.021,-169.031,997.35,26.25,2730.0,-533.75,100.32,-106.4,-486.4
349024.4776,15.128,-169.702,997.716,-1023.75,3097.5,52.5,83.6,-103.36,-474.24
349024.5276,15.433,-182.146,1000.4,-892.5,2196.25,245.0,86.64,-103.36,-477.28
349024.5776,27.389,-187.514,1005.219,-183.75,2318.75,17.5,80.56,-110.96,-481.84
349024.6276,17.385,-182.085,1002.108,621.25,3517.5,-1137.5,82.08,-101.84,-462.08
349024.6776,17.08,-173.667,998.692,1207.5,3640.0,-1531.25,82.08,-115.52,-478.8
349024.7276,18.361,-170.129,1000.339,901.25,3491.25,-1207.5,85.12,-115.52,-483.36
349024.7776,15.494,-170.312,998.631,350.0,3185.0,-402.5,88.16,-115.52,-489.44
349024.8276,17.385,-168.848,1000.278,157.5,3115.0,-577.5,79.04,-112.48,-483.36
349024.8776,18.727,-170.8,1000.705,26.25,2913.75,-647.5,77.52,-114.0,-475.76
349024.9276,15.494,-173.606,1000.522,-341.25,2948.75,-507.5,95.76,-92.72,-486.4
349024.9776,17.263,-175.314,1003.755,420.0,2913.75,-735.0,95.76,-114.0,-490.96
349025.0276,15.128,-172.996,1003.572,437.5,2502.5,-796.25,80.56,-112.48,-475.76
349025.0776,18.117,-165.432,999.119,105.0,2948.75,-1207.5,82.08,-107.92,-487.92
349025.1276,22.082,-178.12,998.143,-1277.5,1907.5,-1540.0,88.16,-98.8,-475.76
349025.1776,23.851,-180.621,1002.352,87.5,3193.75,-385.0,91.2,-123.12,-474.24
349025.2276,19.215,-185.135,1001.193,315.0,3237.5,-306.25,76.0,-107.92,-484.88
349025.2776,16.104,-170.861,1008.452,1163.75,3088.75,-315.0,85.12,-101.84,-474.24
349025.3276,20.679,-170.19,1000.766,1120.0,2791.25,-280.0,98.8,-109.44,-469.68
349025.3776,17.934,-168.177,996.557,840.0,4095.0,-1155.0,77.52,-114.0,-483.36
349025.4276,16.043,-167.384,1000.4,166.25,2835.0,-1697.5,100.32,-114.0,-483.36
349025.4776,19.52,-168.665,1004.853,341.25,3202.5,-883.75,100.32,-103.36,-481.84
349025.5276,11.712,-169.397,1004.06,630.0,3220.0,-638.75,88.16,-112.48,-472.72
349025.5776,21.594,-172.142,1001.071,463.75,3202.5,-630.0,92.72,-114.0,-478.8
349025.6276,16.348,-156.16,999.363,2511.25,1898.75,-3508.75,86.64,-115.52,-481.84
349025.6776,17.751,-160.613,999.363,-551.25,3937.5,-1146.25,85.12,-100.32,-481.84
349025.7276,5.368,-169.641,1002.474,-761.25,2931.25,-1400.0,101.84,-115.52,-480.32
349025.7776,27.999,-170.983,1002.169,43.75,2126.25,-236.25,80.56,-103.36,-469.68
349025.8276,23.119,-171.044,1001.559,262.5,3368.75,595.0,76.0,-115.52,-484.88
349025.8776,15.128,-169.275,1003.45,253.75,2896.25,-393.75,82.08,-104.88,-472.72
349025.9276,17.873,-168.909,1001.559,358.75,2756.25,-717.5,77.52,-117.04,-484.88
349025.9776,16.531,-158.905,1001.498,358.75,3141.25,-638.75,82.08,-109.44,-492.48
349026.0276,14.762,-166.957,1001.681,-376.25,2905.0,253.75,91.2,-114.0,-481.84
349026.0776,15.494,-165.493,999.241,-1146.25,2625.0,-201.25,95.76,-110.96,-478.8
349026.1276,14.762,-172.691,1002.352,-621.25,2257.5,-1601.25,92.72,-104.88,-492.48
349026.1776,15.311,-172.264,1006.866,-813.75,2275.0,-1487.5,89.68,-103.36,-486.4
349026.2276,22.143,-173.179,1001.498,-332.5,2441.25,113.75,92.72,-109.44,-481.84
349026.2776,18.483,-170.617,1003.999,-577.5,2292.5,-122.5,80.56,-104.88,-478.8
349026.3276,21.716,-171.898,1001.437,-210.0,2108.75,-551.25,91.2,-115.52,-471.2
349026.3776,28.182,-171.654,1001.315,-105.0,3053.75,-201.25,97.28,-106.4,-484.88
349026.4276,20.13,-172.142,1001.254,-17.5,3351.25,-446.25,100.32,-100.32,-478.8
349026.4776,18.178,-170.434,999.912,-192.5,3167.5,-1697.5,94.24,-112.48,-495.52
349026.5276,21.96,-163.175,996.923,-796.25,2266.25,-2528.75,89.68,-115.52,-481.84
349026.5776,27.45,-167.567,1000.095,-892.5,3018.75,-1330.0,83.6,-110.96,-472.72
349026.6276,15.738,-176.351,1005.646,-166.25,2913.75,-280.0,80.56,-126.16,-484.88
349026.6776,17.385,-175.863,1002.291,-87.5,2450.0,-525.0,85.12,-121.6,-474.24
349026.7276,27.999,-176.656,1001.193,315.0,2870.0,-367.5,85.12,-115.52,-477.28
349026.7776,21.289,-171.044,999.302,980.0,3001.25,-805.0,89.68,-104.88,-477.28
349026.8276,26.535,-164.944,1001.742,708.75,3053.75,-1050.0,80.56,-100.32,-490.96
349026.8776,17.385,-168.97,1002.535,-752.5,3255.0,-770.0,79.04,-104.88,-480.32
349026.9276,18.361,-170.922,999.302,-271.25,2782.5,-822.5,82.08,-112.48,-472.72
349026.9776,22.753,-178.669,1000.888,-621.25,3150.0,-665.0,86.64,-115.52,-480.32
349027.0276,20.069,-174.521,1003.084,472.5,3482.5,-778.75,91.2,-107.92,-486.4
349027.0776,15.006,-173.789,1001.437,367.5,2738.75,-612.5,86.64,-112.48,-472.72
349027.1276,26.718,-162.565,999.18,481.25,3272.5,-358.75,88.16,-112.48,-489.44
349027.1778,17.263,-168.421,1004.304,-630.0,2922.5,-551.25,89.68,-104.88,-460.56
349027.2276,22.204,-168.543,1002.108,-411.25,2642.5,-350.0,89.68,-123.12,-480.32
349027.2777,21.96,-175.009,1000.4,70.0,3062.5,-516.25,98.8,-114.0,-471.2
349027.3276,18.849,-171.532,1002.291,61.25,2948.75,-568.75,79.04,-115.52,-483.36
349027.3777,21.411,-168.543,999.18,-52.5,2791.25,-656.25,79.04,-123.12,-477.28
349027.4276,19.764,-168.665,999.912,-245.0,2852.5,-297.5,85.12,-110.96,-478.8
349027.4776,21.838,-171.593,1000.461,-691.25,2520.0,-297.5,86.64,-100.32,-483.36
349027.5276,25.559,-173.606,999.363,-735.0,2773.75,-822.5,79.04,-104.88,-484.88
349027.5776,18.422,-171.349,1009.733,-2170.0,3666.25,-1102.5,98.8,-114.0,-489.44
349027.6276,10.004,-193.309,1008.635,-8.75,1382.5,-2520.0,79.04,-107.92,-478.8
349027.6776,26.596,-187.88,998.997,2310.0,218.75,-3115.0,85.12,-117.04,-481.84
349027.7276,37.21,-165.798,992.165,3316.25,2563.75,-341.25,79.04,-114.0,-472.72
349027.7776,24.827,-152.683,998.021,2922.5,3482.5,647.5,80.56,-107.92,-477.28
349027.8276,20.923,-153.659,995.276,-332.5,2415.0,2073.75,86.64,-112.48,-478.8
349027.8776,24.644,-172.569,1001.62,-1347.5,2091.25,883.75,77.52,-109.44,-459.04
349027.9276,31.049,-178.059,1003.938,262.5,2415.0,-175.0,82.08,-121.6,-503.12
349027.9776,26.596,-168.543,1001.132,892.5,3753.75,-831.25,85.12,-110.96,-478.8
349028.0276,20.801,-168.299,1002.535,936.25,3797.5,-875.0,86.64,-106.4,-466.64
349028.0776,20.374,-158.478,1000.705,551.25,3045.0,-1338.75,80.56,-130.72,-481.84
349028.1276,26.718,-159.454,1000.644,-420.0,2896.25,-183.75,88.16,-110.96,-469.68
349028.1776,25.437,-164.517,1001.132,-936.25,3246.25,-113.75,88.16,-103.36,-483.36
349028.2276,23.546,-169.397,1002.718,-805.0,2983.75,-551.25,83.6,-103.36,-469.68
349028.2776,26.535,-169.275,1002.108,-875.0,3062.5,-735.0,77.52,-109.44,-480.32
349028.3276,24.339,-172.63,1000.705,-691.25,2686.25,-463.75,91.2,-118.56,-484.88
349028.3776,25.193,-174.948,1003.938,-595.0,2983.75,-236.25,85.12,-106.4,-463.6
349028.4276,28.182,-174.094,1001.681,-236.25,2808.75,-350.0,85.12,-118.56,-474.24
349028.4776,28.914,-173.362,1000.278,-201.25,3368.75,-927.5,79.04,-110.96,-489.44
349028.5276,26.352,-174.338,999.79,-35.0,3526.25,-1216.25,101.84,-106.4,-480.32
349028.5776,24.4,-172.386,1002.779,271.25,4007.5,-1268.75,77.52,-106.4,-469.68
349028.6276,17.873,-173.484,1000.522,980.0,3587.5,-1085.0,77.52,-112.48,-490.96
349028.6776,21.411,-163.175,1003.023,551.25,3867.5,-918.75,98.8,-109.44,-483.36
349028.7276,17.629,-170.678,1000.888,-673.75,3351.25,-612.5,88.16,-118.56,-465.12
349028.7776,19.337,-170.495,998.082,-96.25,2992.5,-770.0,80.56,-103.36,-474.24
349028.8276,22.326,-178.974,998.753,-507.5,3368.75,-953.75,85.12,-103.36,-487.92
349028.8776,19.215,-172.996,1006.012,367.5,3648.75,-708.75,98.8,-106.4,-474.24
349028.9276,15.921,-172.325,999.485,463.75,2948.75,-568.75,88.16,-118.56,-472.72
349028.9776,20.557,-164.395,996.313,-315.0,3106.25,-568.75,79.04,-112.48,-494.0
349029.0276,22.753,-172.264,1001.315,-542.5,3307.5,-341.25,94.24,-104.88,-478.8
349029.0776,18.91,-174.582,1004.853,-376.25,3447.5,-551.25,91.2,-123.12,-478.8
349029.1276,18.056,-176.229,1001.193,192.5,3211.25,-1050.0,77.52,-104.88,-492.48
349029.1776,17.08,-171.959,1001.437,533.75,2887.5,-1286.25,86.64,-107.92,-490.96
349029.2276,16.104,-167.262,1000.095,568.75,2896.25,-787.5,101.84,-124.64,-478.8
349029.2776,15.189,-165.615,997.411,96.25,2975.0,-638.75,94.24,-121.6,-480.32
349029.3276,20.435,-169.275,1001.193,-551.25,2555.0,-280.0,92.72,-118.56,-490.96
349029.3776,23.119,-171.776,1001.925,-568.75,2791.25,-210.0,101.84,-109.44,-474.24
349029.4276,22.631,-175.558,1004.182,192.5,3115.0,-770.0,85.12,-110.96,-463.6
349029.4776,18.544,-174.643,1002.779,385.0,3570.0,-1295.0,80.56,-101.84,-480.32
349029.5276,16.775,-171.349,999.912,1680.0,3333.75,-980.0,91.2,-114.0,-498.56
349029.5776,14.762,-156.343,1000.705,638.75,3290.0,-1277.5,88.16,-120.08,-477.28
349029.6276,16.287,-166.469,999.851,-813.75,2563.75,-918.75,95.76,-101.84,-480.32
349029.6776,21.289,-168.421,998.631,-910.0,3106.25,-665.0,86.64,-103.36,-475.76
349029.7276,19.337,-180.682,1002.84,-717.5,3648.75,-341.25,71.44,-117.04,-489.44
349029.7776,13.542,-173.728,1003.755,96.25,3220.0,-595.0,94.24,-115.52,-475.76
349029.8276,19.642,-172.447,1002.047,341.25,2887.5,-726.25,95.76,-107.92,-475.76
349029.8776,16.104,-163.175,999.18,-122.5,3053.75,-717.5,92.72,-114.0,-481.84
349029.9276,21.96,-166.835,1001.071,-201.25,2765.0,-743.75,89.68,-110.96,-483.36
349029.9776,19.825,-169.153,1001.315,-656.25,3071.25,-936.25,94.24,-112.48,-460.56
349030.0276,15.067,-173.179,1002.047,-288.75,2826.25,-988.75,79.04,-114.0,-483.36
349030.0776,20.862,-169.458,999.912,-455.0,2730.0,-1085.0,91.2,-104.88,-501.6
349030.1276,16.775,-175.192,997.594,26.25,2528.75,-647.5,101.84,-101.84,-490.96
349030.1776,20.008,-175.68,1001.071,822.5,2310.0,17.5,92.72,-114.0,-487.92
349030.2276,22.082,-169.031,1000.156,420.0,2432.5,210.0,100.32,-112.48,-489.44
349030.2776,22.936,-171.654,1001.315,-717.5,2695.0,-122.5,86.64,-118.56,-487.92
349030.3276,20.191,-176.717,1000.827,183.75,2747.5,-735.0,92.72,-114.0,-478.8
349030.3776,23.912,-168.665,998.387,498.75,2896.25,-953.75,79.04,-112.48,-457.52
349030.4276,17.751,-163.358,1003.206,-1032.5,3185.0,-901.25,94.24,-107.92,-489.44
349030.4776,23.363,-175.497,999.241,-787.5,3088.75,-752.5,77.52,-107.92,-481.84
349030.5278,22.143,-179.34,1001.559,-761.25,3473.75,-656.25,92.72,-104.88,-474.24
349030.5776,15.311,-177.632,1001.864,175.0,3298.75,-848.75,83.6,-110.96,-480.32
349030.6277,15.86,-172.264,1002.474,17.5,2922.5,-813.75,92.72,-110.96,-484.88
349030.6776,16.47,-170.068,997.411,297.5,3010.0,-393.75,95.76,-101.84,-477.28
349030.7285,13.786,-172.02,998.692,-271.25,2730.0,-560.0,92.72,-112.48,-481.84
349030.7776,19.886,-170.983,1002.962,-665.0,2625.0,-726.25,89.68,-107.92,-481.84
349030.8276,23.241,-176.351,1000.949,-166.25,3036.25,-770.0,88.16,-115.52,-484.88
349030.8776,20.435,-178.181,1003.633,-245.0,3421.25,-848.75,94.24,-115.52,-474.24
349030.9276,17.751,-175.192,1000.461,288.75,3071.25,-1356.25,83.6,-124.64,-478.8
349030.9776,18.117,-173.545,997.777,-35.0,3167.5,-1085.0,79.04,-115.52,-490.96
349031.0276,15.677,-178.547,1000.339,-113.75,3071.25,-516.25,97.28,-112.48,-477.28
349031.0776,18.3,-175.863,1001.437,-455.0,2660.0,-481.25,86.64,-114.0,-484.88
349031.1276,22.448,-177.571,1001.01,-525.0,2441.25,-612.5,74.48,-106.4,-487.92
349031.1776,23.058,-177.449,1000.949,393.75,2957.5,-1146.25,86.64,-98.8,-468.16
349031.2276,22.204,-175.253,999.607,988.75,3080.0,-875.0,94.24,-106.4,-471.2
349031.2776,14.213,-166.896,1004.304,-8.75,3683.75,-1076.25,95.76,-127.68,-463.6
349031.3276,20.374,-176.717,998.143,-402.5,2773.75,-1076.25,80.56,-106.4,-489.44
349031.3776,21.35,-178.486,997.106,-726.25,3290.0,-1006.25,85.12,-95.76,-481.84
349031.4276,20.374,-181.597,1003.023,52.5,3368.75,-831.25,92.72,-114.0,-478.8
349031.4776,13.237,-177.876,1002.169,551.25,3123.75,-1295.0,89.68,-104.88,-480.32
349031.5276,21.655,-176.168,999.851,218.75,2493.75,-796.25,85.12,-112.48,-478.8
349031.5776,19.825,-173.057,998.936,455.0,2940.0,-708.75,97.28,-103.36,-465.12
349031.6276,21.655,-175.253,1000.095,-122.5,2651.25,-700.0,76.0,-115.52,-486.4
349031.6776,21.533,-175.558,1002.23,61.25,3036.25,-927.5,101.84,-97.28,-484.88
349031.7276,19.398,-177.571,998.753,113.75,3386.25,-927.5,85.12,-118.56,-484.88
349031.7776,14.64,-176.351,1000.949,148.75,3088.75,-1303.75,98.8,-101.84,-477.28
349031.8276,15.555,-176.046,999.363,455.0,2975.0,-1041.25,95.76,-114.0,-474.24
349031.8776,21.533,-171.105,1001.803,-568.75,2712.5,-140.0,89.68,-117.04,-490.96
349031.9276,19.398,-179.462,1000.583,-113.75,2695.0,-236.25,92.72,-103.36,-492.48
349031.9776,18.117,-177.632,1001.254,-577.5,2660.0,-665.0,83.6,-115.52,-477.28
349032.0276,19.825,-182.512,1000.278,630.0,875.0,-4121.25,83.6,-94.24,-472.72
349032.0776,39.894,-173.667,996.008,840.0,2336.25,-3132.5,86.64,-106.4,-481.84
349032.1276,25.376,-166.042,998.936,8.75,3228.75,-2598.75,86.64,-107.92,-480.32
349032.1776,26.84,-166.408,999.363,-857.5,3570.0,-253.75,74.48,-110.96,-462.08
349032.2276,20.496,-177.083,997.167,-726.25,3867.5,822.5,80.56,-106.4,-483.36
349032.2776,26.718,-173.85,998.997,-516.25,4523.75,1995.0,106.4,-114.0,-477.28
349032.3276,15.25,-178.059,1003.694,-157.5,4173.75,1522.5,98.8,-103.36,-468.16
349032.3776,11.834,-184.464,1002.657,61.25,1522.5,-1330.0,94.24,-117.04,-478.8
349032.4276,32.513,-173.545,995.825,612.5,3001.25,-1443.75,86.64,-109.44,-468.16
349032.4776,16.775,-175.131,1000.4,516.25,3351.25,-1050.0,91.2,-101.84,-481.84
349032.5276,20.557,-171.349,1004.121,-148.75,2450.0,-743.75,86.64,-106.4,-481.84
349032.5776,23.973,-179.889,1002.535,350.0,3290.0,-411.25,77.52,-106.4,-477.28
349032.6276,12.139,-179.401,1000.461,490.0,3237.5,-1006.25,79.04,-100.32,-480.32
349032.6776,16.592,-175.192,1000.278,805.0,2170.0,-1513.75,86.64,-101.84,-472.72
349032.7276,24.095,-169.458,1000.461,936.25,2651.25,-638.75,77.52,-95.76,-490.96
349032.7776,21.594,-170.861,1000.705,516.25,2835.0,402.5,82.08,-117.04,-486.4
349032.8276,20.74,-169.458,1000.156,507.5,2432.5,245.0,77.52,-118.56,-477.28
349032.8776,25.62,-171.41,1000.278,376.25,2301.25,-455.0,83.6,-107.92,-472.72
349032.9276,27.023,-167.323,998.631,656.25,3088.75,-481.25,86.64,-107.92,-466.64
349032.9776,27.877,-163.602,998.57,385.0,3535.0,-332.5,83.6,-114.0,-483.36
349033.0276,14.762,-157.929,1003.084,-1321.25,3237.5,-621.25,92.72,-107.92,-474.24
349033.0776,21.96,-174.521,999.058,-1163.75,2642.5,-743.75,85.12,-115.52,-480.32
349033.1276,26.169,-177.327,1001.803,-1006.25,3473.75,-507.5,66.88,-107.92,-487.92
349033.1776,24.217,-179.828,1003.145,-52.5,3815.0,-446.25,91.2,-115.52,-480.32
349033.2276,15.616,-174.338,1004.426,8.75,3430.0,-595.0,82.08,-103.36,-474.24
349033.2776,17.69,-175.253,997.96,568.75,3578.75,-892.5,80.56,-120.08,-487.92
349033.3276,13.664,-171.654,998.936,280.0,3272.5,-848.75,79.04,-117.04,-487.92
349033.3776,20.252,-171.837,1001.498,-428.75,2826.25,-717.5,69.92,-120.08,-472.72
349033.4276,20.923,-177.571,1003.938,-297.5,3237.5,-988.75,82.08,-114.0,-481.84
349033.4776,14.579,-175.192,999.607,437.5,3281.25,-1338.75,88.16,-114.0,-489.44
349033.5276,12.932,-174.277,1002.108,700.0,2896.25,-1242.5,91.2,-115.52,-474.24
349033.5776,18.361,-166.469,998.692,533.75,2957.5,-533.75,89.68,-115.52,-480.32
349033.6276,15.555,-166.957,1001.193,-43.75,2677.5,-87.5,69.92,-114.0,-466.64
349033.6776,18.056,-168.116,1001.681,-1041.25,2502.5,-218.75,88.16,-101.84,-495.52
349033.7276,19.398,-175.07,1003.145,-568.75,2485.0,-822.5,97.28,-107.92,-478.8
349033.7776,20.74,-173.423,1000.339,-43.75,2493.75,-691.25,88.16,-117.04,-480.32
349033.8276,26.23,-169.214,1000.827,87.5,2948.75,-848.75,89.68,-110.96,-483.36
349033.8776,17.995,-173.728,1002.474,-1172.5,2712.5,-428.75,86.64,-115.52,-474.24
349033.9276,19.947,-181.414,994.544,-840.0,2590.0,-1067.5,97.28,-104.88,-471.2
349033.9778,24.766,-184.647,1000.705,-393.75,3027.5,-945.0,83.6,-106.4,-472.72
349034.0276,18.422,-177.083,1004.67,778.75,3736.25,-866.25,86.64,-104.88,-483.36
349034.0777,16.958,-173.057,999.424,805.0,3071.25,-796.25,76.0,-109.44,-477.28
349034.1276,16.958,-169.763,998.448,61.25,3543.75,-1347.5,89.68,-117.04,-463.6
349034.1776,15.555,-172.813,999.851,131.25,3080.0,-936.25,83.6,-114.0,-474.24
349034.2276,15.311,-175.497,1002.413,638.75,3045.0,-743.75,77.52,-106.4,-481.84
349034.2776,17.202,-173.118,1003.084,323.75,2870.0,-787.5,89.68,-115.52,-481.84
349034.3276,17.324,-169.885,997.96,157.5,2870.0,-1190.0,86.64,-114.0,-474.24
349034.3776,17.141,-169.458,999.058,78.75,2835.0,-1225.0,85.12,-110.96,-486.4
349034.4276,17.812,-171.044,1000.095,-463.75,2651.25,-612.5,83.6,-115.52,-481.84
349034.4776,17.751,-172.203,1000.217,-96.25,2913.75,-70.0,89.68,-114.0,-481.84
349034.5276,17.69,-174.643,1000.217,-516.25,2660.0,-201.25,83.6,-106.4,-480.32
349034.5776,21.35,-177.388,1001.681,253.75,2248.75,-962.5,89.68,-106.4,-480.32
349034.6276,23.912,-175.009,1000.583,700.0,2598.75,-306.25,92.72,-112.48,-475.76
349034.6776,25.437,-167.811,1001.986,691.25,3526.25,-262.5,97.28,-112.48,-481.84
349034.7276,19.337,-173.179,1003.206,-428.75,2861.25,-647.5,86.64,-107.92,-487.92
349034.7776,21.106,-171.776,997.533,-17.5,2625.0,-743.75,80.56,-107.92,-484.88
349034.8276,23.363,-180.194,1002.779,-245.0,3325.0,-551.25,85.12,-110.96,-478.8
349034.8776,16.47,-171.288,1003.877,420.0,3517.5,-1015.0,86.64,-104.88,-478.8
349034.9276,18.971,-173.911,998.814,280.0,3001.25,-1085.0,88.16,-115.52,-463.6
349034.9776,19.276,-167.079,996.557,358.75,3465.0,-1032.5,94.24,-106.4,-478.8
349035.0276,16.958,-165.737,1000.217,-262.5,3263.75,-953.75,80.56,-117.04,-472.72
349035.0776,20.435,-169.763,1001.986,-901.25,3237.5,-586.25,77.52,-112.48,-490.96
349035.1276,18.727,-175.558,1001.071,-393.75,3080.0,-533.75,79.04,-101.84,-487.92
349035.1776,16.836,-171.532,1001.376,0.0,3150.0,-997.5,83.6,-120.08,-480.32
349035.2276,18.727,-163.907,998.082,-971.25,3036.25,-1321.25,95.76,-114.0,-477.28
349035.2776,20.008,-173.728,1000.034,-1478.75,3010.0,-892.5,77.52,-106.4,-489.44
349035.3276,11.468,-180.255,1004.06,-962.5,3018.75,-787.5,74.48,-109.44,-492.48
349035.3776,18.178,-180.987,1003.633,-201.25,2222.5,-315.0,91.2,-109.44,-471.2
349035.4276,20.923,-179.401,1002.535,-411.25,2572.5,-192.5,85.12,-103.36,-472.72
349035.4776,21.289,-182.329,1001.498,560.0,2686.25,-971.25,91.2,-106.4,-484.88
349035.5276,19.093,-175.314,996.923,656.25,2992.5,-1190.0,86.64,-109.44,-478.8
349035.5776,24.278,-166.042,997.289,498.75,3893.75,-822.5,82.08,-114.0,-478.8
349035.6276,13.969,-177.083,1000.827,-1391.25,2931.25,-577.5,85.12,-106.4,-478.8
349035.6776,19.459,-180.316,998.814,-490.0,2703.75,-901.25,79.04,-112.48,-487.92
349035.7276,20.374,-181.292,1003.084,-43.75,3167.5,-586.25,80.56,-120.08,-469.68
349035.7776,16.287,-182.329,1003.511,586.25,3552.5,-603.75,89.68,-104.88,-480.32
349035.8276,11.773,-174.216,999.058,665.0,3263.75,-770.0,85.12,-112.48,-477.28
349035.8776,17.263,-173.179,999.18,682.5,3167.5,-875.0,86.64,-101.84,-490.96
349035.9276,17.324,-176.534,1000.888,-323.75,3211.25,-682.5,86.64,-110.96,-481.84
349035.9776,17.385,-177.815,1002.352,-568.75,3307.5,-778.75,95.76,-106.4,-471.2
349036.0276,16.836,-181.78,1000.034,17.5,3911.25,-1006.25,89.68,-121.6,-481.84
349036.0776,11.834,-173.484,998.997,463.75,3368.75,-1347.5,97.28,-100.32,-480.32
349036.1276,11.407,-174.216,998.631,87.5,3097.5,-1207.5,83.6,-101.84,-477.28
349036.1776,13.115,-176.534,998.753,297.5,2668.75,-455.0,82.08,-123.12,-495.52
349036.2276,14.518,-176.961,1001.071,43.75,2686.25,-218.75,88.16,-100.32,-477.28
349036.2776,11.956,-175.375,1000.583,192.5,2607.5,-306.25,92.72,-110.96,-475.76
349036.3276,15.433,-177.083,1003.084,-61.25,2555.0,-463.75,86.64,-114.0,-475.76
349036.3776,20.74,-176.961,1002.291,297.5,2983.75,-621.25,101.84,-106.4,-471.2
349036.4276,18.727,-176.107,1000.461,621.25,2861.25,-560.0,91.2,-110.96,-481.84
349036.4776,13.176,-167.445,1003.328,-297.5,3281.25,-787.5,91.2,-112.48,-481.84
349036.5276,17.263,-177.083,999.241,-533.75,2808.75,-542.5,77.52,-117.04,-480.32
349036.5776,17.873,-179.889,1000.217,-280.0,3010.0,-586.25,88.16,-106.4,-483.36
349036.6276,18.666,-176.839,1002.596,-166.25,3062.5,-437.5,66.88,-115.52,-466.64
349036.6776,13.969,-175.68,1004.121,428.75,3097.5,-831.25,77.52,-106.4,-483.36
349036.7276,20.679,-177.266,999.241,472.5,3211.25,-778.75,97.28,-120.08,-487.92
349036.7776,14.518,-171.227,998.082,262.5,3097.5,-848.75,89.68,-106.4,-481.84
349036.8276,17.934,-174.46,1000.583,-411.25,3325.0,-752.5,79.04,-109.44,-486.4
349036.8776,17.507,-176.595,997.045,-437.5,3263.75,-805.0,86.64,-106.4,-487.92
349036.9276,15.25,-178.974,1000.156,96.25,3473.75,-1067.5,91.2,-107.92,-477.28
349036.9776,11.346,-174.399,1000.827,175.0,2817.5,-1260.0,83.6,-107.92,-469.68
349037.0276,15.738,-170.373,999.363,-8.75,2677.5,-822.5,85.12,-107.92,-498.56
349037.0776,14.396,-178.547,1000.644,-113.75,3342.5,-735.0,79.04,-100.32,-483.36
349037.1276,13.603,-176.961,1003.328,-306.25,2843.75,-988.75,101.84,-109.44,-475.76
349037.1776,16.348,-179.584,1001.742,-17.5,2581.25,-1102.5,85.12,-110.96,-471.2
349037.2276,15.616,-179.401,1002.474,105.0,3123.75,-910.0,86.64,-104.88,-483.36
349037.2776,19.093,-174.155,998.57,962.5,2590.0,-682.5,91.2,-114.0,-480.32
349037.3276,11.834,-172.203,1003.389,-892.5,3465.0,-323.75,92.72,-114.0,-471.2
349037.3776,12.627,-180.377,1001.071,-393.75,2896.25,-175.0,85.12,-97.28,-483.36
349037.4277,17.873,-180.072,999.241,-516.25,2887.5,-280.0,77.52,-106.4,-480.32
349037.4776,14.518,-183.549,1000.522,367.5,2817.5,-402.5,95.76,-107.92,-483.36
349037.5277,6.893,-175.558,1003.694,8.75,2266.25,-350.0,94.24,-107.92,-477.28
349037.5776,20.069,-172.63,995.398,560.0,2117.5,70.0,83.6,-107.92,-478.8
349037.6276,19.276,-174.704,998.814,-201.25,2415.0,122.5,83.6,-104.88,-484.88
349037.6776,20.557,-178.608,1005.097,-647.5,2485.0,-341.25,86.64,-112.48,-477.28
349037.7276,18.849,-180.804,1001.315,-166.25,2800.0,-1093.75,92.72,-106.4,-487.92
349037.7776,13.664,-175.436,1003.938,-411.25,2756.25,-656.25,83.6,-117.04,-484.88
349037.8276,12.627,-175.985,1000.034,551.25,2170.0,533.75,89.68,-100.32,-483.36
349037.8776,18.971,-174.948,997.472,-271.25,2371.25,840.0,107.92,-107.92,-474.24
349037.9276,22.57,-179.035,997.228,-105.0,2397.5,-183.75,77.52,-106.4,-475.76
349037.9776,20.191,-181.78,1002.169,-822.5,2493.75,-953.75,91.2,-112.48,-489.44
349038.0276,21.228,-182.634,1002.169,140.0,2301.25,-1146.25,92.72,-95.76,-486.4
349038.0776,22.753,-179.767,997.838,805.0,2712.5,-341.25,89.68,-120.08,-475.76
349038.1276,25.681,-173.789,999.363,831.25,3106.25,-367.5,71.44,-114.0,-480.32
349038.1776,18.056,-173.728,999.912,-1067.5,2992.5,-796.25,94.24,-106.4,-478.8
349038.2276,23.058,-181.292,998.509,-525.0,2983.75,-831.25,103.36,-107.92,-472.72
349038.2776,20.801,-181.902,1000.583,-735.0,3088.75,-516.25,100.32,-107.92,-477.28
349038.3276,17.141,-182.512,1002.169,708.75,3202.5,-157.5,86.64,-112.48,-490.96
349038.3776,16.104,-178.547,1001.498,175.0,2983.75,70.0,77.52,-95.76,-474.24
349038.4276,20.984,-173.789,995.581,297.5,3333.75,35.0,94.24,-109.44,-484.88
349038.4776,13.725,-173.24,998.265,-341.25,2975.0,-612.5,92.72,-118.56,-475.76
349038.5276,21.838,-178.547,1000.522,-717.5,2887.5,-831.25,89.68,-106.4,-477.28
349038.5776,19.947,-183.854,999.79,35.0,3360.0,-778.75,100.32,-101.84,-477.28
349038.6276,15.128,-179.767,999.119,122.5,3185.0,-962.5,83.6,-107.92,-466.64
349038.6776,18.422,-177.571,998.814,271.25,2905.0,-1181.25,82.08,-117.04,-494.0
349038.7276,18.117,-174.948,998.57,-183.75,3071.25,-708.75,97.28,-103.36,-475.76
349038.7776,17.629,-177.632,1001.559,-498.75,2896.25,-367.5,91.2,-97.28,-475.76
349038.8276,18.056,-178.547,999.485,-393.75,2817.5,-481.25,79.04,-104.88,-487.92
349038.8776,19.825,-184.769,1001.437,-533.75,2826.25,-568.75,98.8,-110.96,-483.36
349038.9276,22.143,-182.268,999.241,420.0,2616.25,-796.25,101.84,-97.28,-487.92
349038.9776,21.96,-180.316,998.265,971.25,3062.5,-840.0,77.52,-103.36,-475.76
349039.0276,16.775,-170.373,997.899,367.5,3018.75,-1067.5,66.88,-117.04,-492.48
349039.0776,15.799,-175.985,1002.047,-1015.0,2607.5,-857.5,82.08,-103.36,-494.0
349039.1276,24.095,-180.499,998.936,-752.5,3001.25,-411.25,80.56,-117.04,-459.04
349039.1776,17.507,-193.187,1003.755,-157.5,3167.5,-603.75,92.72,-95.76,-481.84
349039.2276,15.982,-185.989,1003.511,761.25,3106.25,-980.0,80.56,-107.92,-469.68
349039.2776,16.897,-177.754,999.424,1321.25,2800.0,-866.25,97.28,-118.56,-472.72
349039.3276,22.814,-172.447,997.716,455.0,3325.0,-638.75,86.64,-103.36,-478.8
349039.3776,16.165,-175.802,999.302,-577.5,2782.5,-883.75,82.08,-94.24,-475.76
349039.4276,22.021,-187.392,1001.559,-700.0,3246.25,-612.5,103.36,-114.0,-475.76
349039.4776,19.337,-185.684,1001.132,236.25,3281.25,-691.25,95.76,-101.84,-471.2
349039.5276,15.189,-179.584,998.875,612.5,3018.75,-1102.5,80.56,-98.8,-469.68
349039.5776,11.712,-177.937,999.302,280.0,2625.0,-1242.5,74.48,-106.4,-490.96
349039.6276,19.215,-178.303,998.387,122.5,3018.75,-595.0,82.08,-98.8,-472.72
349039.6776,18.117,-180.377,999.424,-315.0,3053.75,-8.75,94.24,-124.64,-465.12
349039.7276,17.202,-182.146,1000.156,-323.75,2782.5,26.25,85.12,-118.56,-469.68
349039.7776,19.215,-179.523,1001.62,113.75,2843.75,-752.5,92.72,-98.8,-494.0
349039.8276,18.422,-178.852,1003.206,-166.25,3027.5,-945.0,95.76,-106.4,-490.96
349039.8776,19.154,-177.632,998.326,402.5,3211.25,-708.75,88.16,-98.8,-475.76
349039.9276,13.176,-175.802,1005.28,-603.75,3167.5,-227.5,89.68,-97.28,-480.32
349039.9776,25.376,-188.978,995.52,-166.25,2563.75,70.0,100.32,-100.32,-486.4
349040.0276,17.812,-182.817,997.045,341.25,3185.0,-621.25,110.96,-112.48,-477.28
349040.0776,21.106,-184.159,998.265,848.75,2870.0,-1321.25,88.16,-104.88,-478.8
349040.1276,14.762,-176.595,1002.535,673.75,3150.0,-1461.25,88.16,-106.4,-490.96
349040.1776,23.18,-173.362,996.557,507.5,2843.75,-805.0,74.48,-106.4,-480.32
349040.2276,16.714,-169.458,1000.461,-472.5,2931.25,-350.0,94.24,-106.4,-463.6
349040.2776,21.533,-179.889,1002.047,-1251.25,2931.25,-367.5,80.56,-123.12,-474.24
349040.3276,18.544,-185.135,1001.864,-883.75,3115.0,-796.25,83.6,-94.24,-481.84
349040.3776,16.836,-185.074,1002.901,218.75,2948.75,-1286.25,77.52,-104.88,-487.92
349040.4276,16.897,-175.924,998.692,437.5,2983.75,-1373.75,85.12,-88.16,-459.04
349040.4776,21.838,-179.584,997.167,-70.0,3421.25,-612.5,83.6,-106.4,-483.36
349040.5276,15.555,-175.802,998.631,-542.5,3272.5,-227.5,77.52,-106.4,-481.84
349040.5776,20.191,-184.037,1000.156,-1041.25,2843.75,-376.25,97.28,-115.52,-474.24
349040.6276,20.008,-188.124,997.96,-218.75,3027.5,-1111.25,91.2,-121.6,-477.28
349040.6776,20.13,-191.479,999.363,1006.25,2773.75,-980.0,86.64,-114.0,-463.6
349040.7276,18.788,-176.656,997.472,656.25,3622.5,-918.75,85.12,-106.4,-480.32
349040.7778,15.311,-183.732,997.228,-175.0,3158.75,-245.0,76.0,-112.48,-475.76
349040.8276,14.884,-180.743,996.862,306.25,2975.0,-778.75,94.24,-115.52,-483.36
349040.8777,18.422,-180.682,998.265,271.25,2765.0,-603.75,89.68,-121.6,-480.32
349040.9276,17.141,-182.329,1000.156,105.0,3115.0,-560.0,92.72,-115.52,-489.44
349040.9776,20.313,-179.706,1000.949,-131.25,2397.5,-507.5,88.16,-112.48,-475.76
349041.0276,19.642,-176.107,997.35,533.75,2826.25,-1225.0,77.52,-112.48,-489.44
349041.0776,22.082,-171.349,997.655,43.75,2843.75,-997.5,91.2,-103.36,-490.96
349041.1276,20.252,-178.425,997.655,-586.25,3290.0,-918.75,94.24,-107.92,-474.24
349041.1776,17.568,-180.072,999.058,-586.25,3360.0,-918.75,71.44,-103.36,-465.12
349041.2276,16.775,-180.011,999.119,78.75,2800.0,-1050.0,79.04,-106.4,-480.32
349041.2776,19.52,-178.242,997.289,-490.0,2975.0,-761.25,85.12,-112.48,-481.84
349041.3276,17.873,-177.449,996.069,-691.25,3045.0,-271.25,86.64,-117.04,-474.24
349041.3776,15.982,-187.819,1000.461,-1233.75,2931.25,-367.5,91.2,-106.4,-462.08
349041.4276,18.849,-191.845,1001.925,-157.5,2948.75,-796.25,77.52,-117.04,-484.88
349041.4776,17.568,-184.403,999.79,822.5,3062.5,-883.75,89.68,-109.44,-481.84
349041.5276,19.459,-177.083,995.886,682.5,3377.5,-1120.0,83.6,-104.88,-475.76
349041.5776,14.335,-184.403,1001.986,-402.5,2712.5,-673.75,88.16,-110.96,-486.4
349041.6276,20.557,-185.562,997.167,-306.25,3080.0,-516.25,85.12,-117.04,-474.24
349041.6776,18.727,-187.148,999.729,78.75,3010.0,-455.0,89.68,-123.12,-463.6
349041.7276,17.568,-180.316,1001.376,621.25,2773.75,-787.5,89.68,-115.52,-480.32
349041.7776,18.117,-181.475,998.265,822.5,2493.75,-630.0,83.6,-107.92,-487.92
349041.8276,19.947,-176.778,994.544,17.5,2878.75,-595.0,89.68,-115.52,-486.4
349041.8776,17.995,-178.181,1002.901,-157.5,2747.5,-463.75,72.96,-104.88,-462.08
349041.9276,20.862,-180.316,1001.742,-463.75,2922.5,-586.25,89.68,-110.96,-478.8
349041.9776,19.337,-183.183,999.363,-78.75,3185.0,-1058.75,82.08,-114.0,-494.0
349042.0276,20.862,-181.597,997.228,-61.25,3141.25,-1146.25,89.68,-106.4,-474.24
349042.0776,17.934,-179.523,998.631,-332.5,3027.5,-1120.0,80.56,-110.96,-483.36
349042.1276,19.703,-182.573,998.509,-245.0,3053.75,-350.0,80.56,-101.84,-483.36
349042.1776,17.629,-182.573,998.509,-341.25,3053.75,-227.5,88.16,-114.0,-477.28
349042.2276,19.032,-187.27,1002.108,-245.0,2773.75,-700.0,97.28,-103.36,-469.68
349042.2776,23.546,-187.087,1000.034,236.25,3246.25,-1093.75,85.12,-101.84,-484.88
349042.3276,19.154,-181.963,995.947,1093.75,3386.25,-1251.25,83.6,-104.88,-486.4
349042.3776,13.786,-170.373,1001.01,-682.5,3412.5,-1225.0,77.52,-107.92,-468.16
349042.4276,16.409,-184.403,995.825,-630.0,2905.0,-840.0,76.0,-106.4,-475.76
349042.4776,19.398,-184.952,998.021,-691.25,3342.5,-350.0,83.6,-101.84,-480.32
349042.5276,16.47,-187.453,999.912,201.25,3220.0,-586.25,83.6,-94.24,-480.32
349042.5776,12.017,-182.39,1002.474,402.5,3045.0,-1303.75,100.32,-95.76,-478.8
349042.6276,16.958,-179.157,996.618,910.0,2835.0,-691.25,91.2,-95.76,-477.28
349042.6776,12.627,-176.473,997.838,-315.0,2782.5,-385.0,86.64,-110.96,-480.32
349042.7276,14.945,-181.475,999.302,-857.5,2660.0,-271.25,88.16,-106.4,-475.76
349042.7776,22.082,-189.954,1000.888,-665.0,2782.5,-656.25,88.16,-112.48,-474.24
349042.8276,18.178,-185.501,998.631,-35.0,3027.5,-1093.75,85.12,-104.88,-483.36
