TimeStamp,ax,ay,az,gx,gy,gz,mx,my,mz
348849.8276,104.676,-69.906,1010.099,-2485.0,4130.0,-253.75,34.96,-159.6,-481.84
348849.8776,105.042,-78.263,1012.173,-1636.25,4506.25,-245.0,50.16,-168.72,-478.8
348849.9276,97.966,-71.126,1015.345,35.0,5792.5,-1540.0,33.44,-158.08,-463.6
348849.9776,92.842,-72.041,1009.062,-52.5,5433.75,-3150.0,51.68,-164.16,-487.92
348850.0276,91.378,-69.235,1007.11,-350.0,4900.0,-5512.5,59.28,-168.72,-475.76
348850.0776,92.598,-69.174,1010.77,-376.25,5608.75,-6510.0,60.8,-161.12,-472.72
348850.1276,79.056,-69.662,1007.659,-1102.5,6247.5,-6903.75,44.08,-168.72,-484.88
348850.1776,77.897,-69.906,1010.099,-236.25,5328.75,-7953.75,45.6,-164.16,-474.24
348850.2276,76.616,-66.673,1009.672,-770.0,4602.5,-8102.5,60.8,-173.28,-489.44
348850.2776,85.339,-69.784,1006.744,-1837.5,3692.5,-6833.75,48.64,-177.84,-480.32
348850.3276,93.757,-76.677,1009.672,-1330.0,4060.0,-6475.0,38.0,-171.76,-480.32
348850.3776,85.888,-73.078,1012.722,-1312.5,5320.0,-6431.25,44.08,-174.8,-471.2
348850.4276,77.47,-68.015,1007.842,-1461.25,4838.75,-5696.25,65.36,-173.28,-466.64
348850.4776,84.363,-71.248,1009.123,-2598.75,4707.5,-5118.75,53.2,-173.28,-481.84
348850.5276,83.204,-78.507,1011.746,-1373.75,5652.5,-3613.75,50.16,-179.36,-489.44
348850.5776,77.714,-80.215,1017.419,-1155.0,5617.5,-2651.25,66.88,-180.88,-477.28
348850.6276,77.592,-81.679,1011.807,-1531.25,6352.5,-3491.25,51.68,-179.36,-497.04
348850.6776,70.211,-76.372,1012.356,236.25,6623.75,-3806.25,62.32,-177.84,-486.4
348850.7276,71.614,-77.653,1010.282,428.75,8076.25,-4602.5,68.4,-180.88,-490.96
348850.7776,52.46,-70.15,1004.609,1225.0,7988.75,-7096.25,68.4,-180.88,-484.88
348850.8276,52.216,-69.296,1010.343,131.25,7070.0,-7455.0,66.88,-180.88,-494.0
348850.8776,70.882,-70.821,1013.515,1741.25,6378.75,-6291.25,48.64,-171.76,-486.4
348850.9276,54.107,-89.914,1012.905,-1890.0,12582.5,-9213.75,71.44,-179.36,-484.88
348850.9776,15.067,-108.824,1015.101,-3578.75,11655.0,-8925.0,69.92,-177.84,-497.04
348851.0276,-5.185,-84.241,1018.273,5897.5,5425.0,-8408.75,79.04,-188.48,-498.56
348851.0776,15.189,-61.61,1019.188,2257.5,971.25,-3298.75,72.96,-180.88,-481.84
348851.1276,51.667,-61.0,1010.831,1898.75,428.75,2590.0,69.92,-194.56,-495.52
348851.1776,60.451,-65.941,1013.881,2038.75,1706.25,4935.0,60.8,-185.44,-490.96
348851.2276,48.129,-70.577,1010.099,4681.25,3185.0,1925.0,77.52,-188.48,-492.48
348851.2776,40.809,-39.284,1018.395,4165.0,148.75,-1076.25,77.52,-183.92,-486.4
348851.3276,52.765,-46.909,1015.406,2730.0,-175.0,87.5,62.32,-203.68,-504.64
348851.3776,71.797,-93.147,980.88,-1137.5,8496.25,-1522.5,66.88,-194.56,-484.88
348851.4276,-13.115,1.403,1021.75,3850.0,6886.25,-9485.0,72.96,-190.0,-487.92
348851.4776,18.727,-68.32,1020.713,-8207.5,-2380.0,-3132.5,65.36,-185.44,-497.04
348851.5276,76.067,-68.625,1003.267,3710.0,-1662.5,1846.25,63.84,-186.96,-504.64
348851.5776,73.627,-33.916,1007.903,1172.5,1933.75,2738.75,66.88,-199.12,-475.76
348851.6276,70.638,-53.619,1014.064,-1837.5,3622.5,4453.75,69.92,-185.44,-478.8
348851.6776,64.416,-62.891,1019.432,-1111.25,3815.0,4287.5,69.92,-179.36,-489.44
348851.7276,64.416,-70.089,1017.419,-498.75,3587.5,4707.5,60.8,-191.52,-490.96
348851.7776,52.399,-63.928,1011.319,2668.75,3176.25,2607.5,69.92,-186.96,-484.88
348851.8276,45.689,-44.652,1011.807,1706.25,2493.75,1155.0,71.44,-191.52,-490.96
348851.8776,54.534,-43.676,1010.099,306.25,1540.0,945.0,59.28,-182.4,-498.56
348851.9276,58.072,-48.617,1010.831,-761.25,2257.5,253.75,68.4,-185.44,-484.88
348851.9776,57.584,-52.887,1011.502,-717.5,3815.0,-1085.0,72.96,-190.0,-477.28
348852.0276,51.545,-55.083,1010.465,-1365.0,3841.25,-1802.5,62.32,-180.88,-503.12
348852.0776,49.776,-63.44,1016.077,-1015.0,3998.75,-2353.75,68.4,-182.4,-498.56
348852.1276,44.591,-58.743,1014.552,-761.25,4095.0,-2992.5,66.88,-185.44,-492.48
348852.1776,39.406,-62.281,1016.26,-1085.0,3937.5,-2826.25,65.36,-176.32,-478.8
348852.2276,42.883,-59.292,1012.661,-997.5,3981.25,-2773.75,76.0,-182.4,-492.48
348852.2776,35.868,-64.233,1011.807,-210.0,3211.25,-2563.75,63.84,-186.96,-490.96
348852.3276,42.822,-53.436,1012.966,-332.5,2616.25,-2082.5,68.4,-188.48,-490.96
348852.3776,50.996,-67.222,1011.502,-2520.0,2791.25,-770.0,66.88,-190.0,-490.96
348852.4276,57.523,-74.359,1008.696,-568.75,4348.75,-2423.75,62.32,-182.4,-474.24
348852.4777,65.392,-78.873,1011.258,-1732.5,6510.0,-4191.25,74.48,-188.48,-483.36
348852.5276,32.269,-62.403,1015.711,1338.75,5766.25,-3692.5,66.88,-188.48,-484.88
348852.5777,25.254,-60.573,1012.295,463.75,4042.5,-1461.25,74.48,-180.88,-489.44
348852.6276,24.461,-55.144,1010.465,-43.75,2135.0,630.0,68.4,-191.52,-481.84
348852.6776,36.234,-59.231,1010.221,-656.25,988.75,2248.75,51.68,-180.88,-489.44
348852.7276,40.748,-63.684,1013.881,122.5,1400.0,2773.75,60.8,-176.32,-497.04
348852.7776,46.36,-61.366,1016.931,-402.5,2100.0,1697.5,72.96,-182.4,-483.36
348852.8276,46.482,-66.002,1013.454,-227.5,2362.5,822.5,74.48,-183.92,-490.96
348852.8776,46.116,-64.843,1009.916,-210.0,2870.0,-122.5,68.4,-177.84,-503.12
348852.9276,42.273,-61.183,1013.393,175.0,2843.75,-402.5,62.32,-180.88,-480.32
348852.9776,45.14,-64.477,1014.674,-980.0,2607.5,840.0,72.96,-179.36,-487.92
348853.0276,44.957,-65.209,1015.101,-997.5,2695.0,953.75,74.48,-190.0,-490.96
348853.0776,43.615,-71.919,1012.478,-805.0,2423.75,-43.75,65.36,-182.4,-498.56
348853.1276,47.214,-63.013,1014.491,-962.5,2388.75,-1207.5,63.84,-183.92,-490.96
348853.1776,52.704,-72.773,1014.796,-1522.5,2292.5,-113.75,82.08,-191.52,-478.8
348853.2276,54.778,-86.62,1012.905,3115.0,3237.5,-175.0,68.4,-185.44,-490.96
348853.2776,47.763,-73.627,1013.088,1207.5,4103.75,-1898.75,72.96,-182.4,-501.6
348853.3276,47.763,-61.427,1010.892,1303.75,4392.5,-1330.0,72.96,-193.04,-481.84
348853.3776,39.528,-60.451,1017.114,-1295.0,3937.5,-201.25,66.88,-193.04,-487.92
348853.4276,36.173,-65.819,1011.868,-1846.25,3815.0,-192.5,69.92,-180.88,-504.64
348853.4776,42.7,-65.453,1014.125,-1373.75,1951.25,-218.75,71.44,-182.4,-497.04
348853.5276,47.519,-74.054,1013.881,-1286.25,2913.75,367.5,69.92,-179.36,-495.52
348853.5776,45.933,-77.897,1013.393,-393.75,3657.5,1032.5,62.32,-180.88,-483.36
348853.6276,52.033,-77.165,1013.149,682.5,4165.0,2100.0,63.84,-174.8,-486.4
348853.6776,40.443,-79.605,1015.345,568.75,5372.5,700.0,82.08,-179.36,-484.88
348853.7276,28.975,-62.891,1011.868,498.75,2730.0,-1680.0,77.52,-177.84,-478.8
348853.7776,36.417,-66.978,1011.075,-866.25,1618.75,-1662.5,77.52,-176.32,-501.6
348853.8276,43.31,-74.481,1012.905,-542.5,2318.75,-183.75,80.56,-180.88,-489.44
348853.8776,43.127,-74.42,1013.332,-2100.0,3150.0,-507.5,72.96,-179.36,-487.92
348853.9276,52.277,-72.895,1015.406,-61.25,3552.5,236.25,71.44,-183.92,-497.04
348853.9776,57.279,-59.841,1016.992,-6090.0,5853.75,4191.25,79.04,-176.32,-483.36
348854.0276,37.454,-113.826,1012.356,-3622.5,6868.75,2843.75,79.04,-183.92,-487.92
348854.0776,19.764,-79.361,1012.905,140.0,3998.75,-717.5,72.96,-176.32,-489.44
348854.1276,25.193,-86.254,1011.014,-840.0,3465.0,-1085.0,59.28,-174.8,-501.6
348854.1776,24.766,-76.738,1013.454,-78.75,2353.75,-1435.0,72.96,-161.12,-489.44
348854.2276,34.465,-82.228,1011.441,-1583.75,2625.0,-603.75,65.36,-185.44,-483.36
348854.2776,32.147,-79.971,1015.101,-1268.75,2135.0,-122.5,76.0,-165.68,-503.12
348854.3276,34.526,-86.803,1016.565,-778.75,1881.25,122.5,74.48,-176.32,-486.4
348854.3776,38.552,-85.583,1012.6,-262.5,1995.0,26.25,82.08,-164.16,-498.56
348854.4276,40.931,-84.729,1015.101,26.25,3036.25,-1111.25,63.84,-179.36,-480.32
348854.4776,36.112,-77.47,1010.16,-341.25,2616.25,-1566.25,77.52,-173.28,-486.4
348854.5276,37.576,-80.947,1009.672,-560.0,2616.25,-901.25,88.16,-179.36,-477.28
348854.5776,37.698,-69.54,1009.001,-1995.0,2310.0,498.75,76.0,-173.28,-483.36
348854.6276,38.613,-77.165,1008.086,-4033.75,2423.75,848.75,57.76,-170.24,-480.32
348854.6776,42.151,-98.332,1011.624,-4436.25,3255.0,1513.75,66.88,-156.56,-480.32
348854.7276,33.672,-109.617,1015.101,-2170.0,3193.75,-78.75,76.0,-171.76,-486.4
348854.7776,30.988,-108.763,1015.284,-1006.25,2756.25,-997.5,69.92,-173.28,-489.44
348854.8276,39.162,-95.709,1012.661,743.75,2852.5,-1093.75,77.52,-167.2,-494.0
348854.8776,36.6,-86.132,1012.417,-385.0,2511.25,26.25,83.6,-161.12,-483.36
348854.9276,41.48,-94.55,1006.134,-1505.0,2467.5,498.75,68.4,-161.12,-481.84
348854.9776,37.881,-110.227,1011.014,-1811.25,2651.25,-78.75,71.44,-158.08,-495.52
348855.0276,33.428,-109.678,1014.796,-927.5,1872.5,-997.5,66.88,-173.28,-475.76
348855.0776,46.055,-106.933,1010.343,-78.75,1785.0,-341.25,59.28,-159.6,-498.56
348855.1276,42.578,-105.469,1010.343,350.0,2756.25,551.25,62.32,-165.68,-489.44
348855.1776,36.356,-99.247,1010.343,-8.75,2205.0,52.5,71.44,-170.24,-475.76
348855.2276,46.848,-104.554,1010.831,-682.5,2318.75,-463.75,74.48,-162.64,-477.28
348855.2776,46.909,-102.907,1009.123,-525.0,3325.0,-673.75,62.32,-173.28,-506.16
348855.3276,40.077,-104.005,1009.916,-516.25,3062.5,-927.5,68.4,-162.64,-481.84
348855.3776,41.48,-102.602,1007.903,-787.5,2546.25,-936.25,79.04,-174.8,-478.8
348855.4276,44.408,-105.652,1010.038,-560.0,2712.5,-1163.75,60.8,-168.72,-490.96
348855.4776,42.822,-105.408,1008.269,-743.75,2957.5,-621.25,62.32,-164.16,-489.44
348855.5276,38.613,-108.214,1009.367,-778.75,3106.25,-542.5,63.84,-161.12,-483.36
348855.5776,39.101,-106.323,1010.16,-516.25,2520.0,-997.5,76.0,-158.08,-471.2
348855.6276,40.138,-108.641,1013.332,-568.75,2283.75,-778.75,66.88,-161.12,-498.56
348855.6776,47.519,-111.752,1010.038,183.75,3115.0,-621.25,56.24,-161.12,-471.2
348855.7276,41.541,-109.922,1011.197,1233.75,2782.5,-402.5,74.48,-162.64,-484.88
348855.7776,42.151,-98.21,1011.746,280.0,2730.0,-901.25,77.52,-159.6,-489.44
348855.8278,48.129,-110.105,1007.232,-700.0,2695.0,-227.5,82.08,-158.08,-487.92
348855.8776,43.249,-110.898,1010.16,-428.75,3412.5,-691.25,79.04,-148.96,-475.76
348855.9277,42.456,-112.606,1010.404,-17.5,3115.0,-542.5,63.84,-161.12,-472.72
348855.9776,40.687,-107.665,1010.282,516.25,2878.75,-542.5,69.92,-161.12,-498.56
348856.0277,45.994,-109.8,1007.232,682.5,3088.75,-393.75,60.8,-174.8,-487.92
348856.0776,38.064,-100.345,1009.733,-122.5,2817.5,-927.5,74.48,-168.72,-477.28
348856.1276,43.188,-107.238,1007.537,-682.5,2738.75,-857.5,71.44,-161.12,-486.4
348856.1776,46.726,-109.068,1009.855,350.0,3482.5,-796.25,60.8,-174.8,-495.52
348856.2276,39.589,-106.872,1009.977,-17.5,3421.25,-936.25,71.44,-170.24,-484.88
348856.2776,41.175,-108.275,1011.319,428.75,2940.0,-1356.25,68.4,-173.28,-486.4
348856.3276,44.591,-105.835,1008.269,708.75,2458.75,-533.75,72.96,-165.68,-490.96
348856.3776,42.395,-104.676,1007.598,586.25,2773.75,175.0,83.6,-158.08,-490.96
348856.4276,43.737,-103.578,1007.964,131.25,3018.75,-192.5,77.52,-165.68,-472.72
348856.4776,40.443,-106.628,1009.367,140.0,2695.0,-796.25,76.0,-164.16,-475.76
348856.5276,43.249,-107.665,1009.916,166.25,2686.25,-1093.75,80.56,-165.68,-487.92
348856.5776,44.835,-109.739,1006.073,656.25,3640.0,-1093.75,66.88,-162.64,-489.44
348856.6276,44.164,-102.541,1007.049,1268.75,3298.75,-1058.75,65.36,-170.24,-487.92
348856.6776,37.21,-95.77,1011.441,542.5,2922.5,-787.5,72.96,-170.24,-497.04
348856.7276,43.371,-106.994,1009.245,-638.75,2887.5,227.5,80.56,-171.76,-489.44
348856.7776,38.43,-108.031,1008.086,507.5,2878.75,-437.5,77.52,-171.76,-478.8
348856.8276,40.382,-106.75,1007.842,288.75,2905.0,-805.0,74.48,-164.16,-503.12
348856.8776,43.066,-103.761,1010.221,218.75,2887.5,-831.25,65.36,-170.24,-494.0
348856.9276,43.371,-102.175,1007.354,210.0,3220.0,-516.25,71.44,-171.76,-471.2
348856.9776,40.504,-99.369,1007.903,-87.5,2975.0,-691.25,79.04,-159.6,-477.28
348857.0276,43.493,-99.369,1013.576,-87.5,2826.25,-910.0,72.96,-159.6,-483.36
348857.0776,46.848,-104.066,1010.16,26.25,3211.25,-997.5,80.56,-171.76,-490.96
348857.1276,40.199,-101.748,1011.624,638.75,3543.75,-1041.25,68.4,-170.24,-480.32
348857.1776,41.663,-100.711,1008.94,210.0,2537.5,-1225.0,69.92,-165.68,-472.72
348857.2276,45.628,-100.406,1008.513,245.0,2712.5,-551.25,62.32,-173.28,-495.52
348857.2776,40.016,-101.382,1010.099,-140.0,2861.25,420.0,76.0,-167.2,-471.2
348857.3276,40.931,-103.212,1010.343,61.25,2738.75,-332.5,65.36,-170.24,-486.4
348857.3776,46.116,-100.04,1009.489,-761.25,2336.25,-778.75,76.0,-170.24,-495.52
348857.4276,48.8,-107.36,1011.075,-332.5,3080.0,-1260.0,69.92,-164.16,-471.2
348857.4776,43.127,-107.055,1007.232,402.5,3010.0,-1356.25,54.72,-159.6,-483.36
348857.5276,44.53,-94.855,1008.879,656.25,3552.5,-813.75,65.36,-162.64,-487.92
348857.5776,41.602,-93.635,1014.308,-577.5,3106.25,-315.0,51.68,-168.72,-489.44
348857.6276,45.384,-102.053,1005.463,-385.0,2616.25,-682.5,74.48,-162.64,-484.88
348857.6776,44.896,-108.763,1011.136,-1067.5,2887.5,-988.75,71.44,-161.12,-472.72
348857.7276,44.957,-106.567,1013.21,-262.5,3228.75,-805.0,76.0,-171.76,-490.96
348857.7776,40.748,-107.604,1012.844,87.5,2966.25,-525.0,69.92,-161.12,-492.48
348857.8276,43.371,-106.323,1007.598,831.25,3255.0,-857.5,59.28,-165.68,-483.36
348857.8776,40.443,-98.576,1007.476,-210.0,2642.5,-875.0,62.32,-159.6,-483.36
348857.9276,46.299,-103.273,1010.709,113.75,3010.0,-971.25,74.48,-161.12,-465.12
348857.9776,46.299,-101.382,1007.598,-183.75,3237.5,-988.75,63.84,-165.68,-474.24
348858.0276,38.979,-107.909,1010.099,-420.0,3106.25,-1190.0,72.96,-173.28,-501.6
348858.0776,41.48,-105.164,1010.892,323.75,2957.5,-1338.75,68.4,-173.28,-486.4
348858.1276,42.212,-103.822,1010.221,175.0,2660.0,-306.25,79.04,-153.52,-480.32
348858.1776,45.384,-98.82,1011.258,-306.25,2817.5,-43.75,60.8,-161.12,-474.24
348858.2276,41.907,-107.726,1007.293,-271.25,2940.0,-306.25,60.8,-164.16,-492.48
348858.2776,41.663,-105.103,1011.441,-315.0,2782.5,-455.0,77.52,-168.72,-486.4
348858.3276,44.225,-110.227,1010.221,-437.5,2887.5,-918.75,76.0,-168.72,-486.4
348858.3776,46.055,-107.665,1008.818,428.75,3211.25,-708.75,53.2,-171.76,-480.32
348858.4276,44.469,-101.443,1007.415,980.0,3377.5,-490.0,62.32,-158.08,-498.56
348858.4776,36.417,-95.526,1011.258,-673.75,2922.5,-122.5,83.6,-156.56,-480.32
348858.5276,42.517,-109.495,1006.073,-43.75,2528.75,-306.25,76.0,-165.68,-484.88
348858.5776,43.371,-105.835,1009.794,-980.0,3167.5,-446.25,69.92,-155.04,-490.96
348858.6276,41.846,-107.665,1011.136,288.75,2826.25,-507.5,63.84,-164.16,-486.4
348858.6776,43.432,-104.188,1011.868,490.0,2843.75,-805.0,72.96,-162.64,-474.24
348858.7276,46.543,-99.979,1007.72,988.75,3141.25,-288.75,68.4,-162.64,-478.8
348858.7776,37.454,-103.7,1010.465,-358.75,2756.25,-1330.0,59.28,-158.08,-487.92
348858.8276,43.31,-102.602,1012.417,-393.75,2563.75,-1321.25,60.8,-155.04,-487.92
348858.8776,53.619,-109.739,1009.367,-831.25,4672.5,-1960.0,80.56,-158.08,-480.32
348858.9276,38.186,-108.58,1009.55,332.5,4165.0,-2738.75,74.48,-167.2,-475.76
348858.9776,36.112,-104.188,1011.929,1846.25,3202.5,-3255.0,66.88,-158.08,-497.04
348859.0276,41.907,-98.637,1010.16,1041.25,3500.0,-227.5,80.56,-159.6,-489.44
348859.0776,38.43,-101.931,1010.404,551.25,3430.0,656.25,77.52,-165.68,-490.96
348859.1276,34.892,-109.434,1009.001,245.0,2520.0,-883.75,63.84,-165.68,-483.36
348859.1778,41.663,-121.512,1015.528,3692.5,2065.0,-1408.75,71.44,-158.08,-484.88
348859.2276,39.284,-95.892,1011.38,1793.75,2380.0,271.25,69.92,-159.6,-490.96
348859.2777,44.103,-92.11,1010.038,1785.0,2318.75,647.5,80.56,-171.76,-475.76
348859.3276,42.395,-90.585,1006.012,507.5,3158.75,332.5,68.4,-174.8,-490.96
348859.3777,42.273,-90.341,1007.537,1697.5,3071.25,-901.25,69.92,-162.64,-497.04
348859.4276,41.053,-81.252,1014.186,-411.25,2966.25,-1023.75,72.96,-170.24,-500.08
348859.4776,44.652,-95.099,1007.964,-455.0,2817.5,-831.25,82.08,-165.68,-483.36
348859.5276,36.295,-101.87,1011.441,-105.0,2756.25,-1408.75,71.44,-155.04,-487.92
348859.5776,39.711,-101.565,1011.685,253.75,2520.0,-2117.5,86.64,-159.6,-486.4
348859.6276,47.519,-103.639,1008.818,227.5,2371.25,-1461.25,69.92,-171.76,-483.36
348859.6776,47.641,-98.942,1004.914,1636.25,3071.25,-551.25,68.4,-168.72,-486.4
348859.7276,42.639,-88.084,1014.552,787.5,2992.5,-1233.75,68.4,-165.68,-484.88
348859.7776,47.763,-86.925,1011.319,201.25,3377.5,-717.5,68.4,-165.68,-495.52
348859.8276,42.151,-86.376,1011.197,-525.0,4427.5,210.0,77.52,-170.24,-483.36
348859.8776,36.417,-93.33,1010.282,-131.25,3211.25,-1093.75,60.8,-176.32,-484.88
348859.9276,37.759,-94.367,1007.415,-586.25,3115.0,-1610.0,60.8,-168.72,-487.92
348859.9776,37.027,-98.393,1012.295,253.75,2975.0,-1023.75,77.52,-173.28,-483.36
348860.0276,36.417,-95.953,1011.685,43.75,3185.0,-367.5,68.4,-170.24,-489.44
348860.0776,37.698,-98.759,1011.563,-218.75,2590.0,-560.0,63.84,-171.76,-495.52
348860.1276,39.223,-87.291,1009.123,-78.75,2520.0,-621.25,71.44,-165.68,-489.44
348860.1776,42.517,-95.77,1012.844,-1128.75,2231.25,-52.5,77.52,-176.32,-465.12
348860.2276,46.36,-97.783,1009.55,393.75,2240.0,-997.5,63.84,-167.2,-483.36
348860.2776,49.227,-94.794,1008.513,157.5,2966.25,-446.25,65.36,-159.6,-487.92
348860.3276,40.077,-87.84,1011.868,770.0,3246.25,-910.0,72.96,-164.16,-494.0
348860.3776,44.835,-102.48,1009.977,-367.5,3351.25,-245.0,65.36,-179.36,-494.0
348860.4276,42.944,-97.234,1007.842,175.0,3316.25,-1207.5,62.32,-171.76,-481.84
348860.4776,43.127,-99.064,1011.746,490.0,2572.5,-2170.0,76.0,-167.2,-494.0
348860.5276,42.944,-92.354,1011.075,253.75,3421.25,-1513.75,80.56,-177.84,-489.44
348860.5776,41.663,-95.648,1008.574,78.75,3648.75,-262.5,57.76,-177.84,-489.44
348860.6276,35.075,-88.328,1009.489,8.75,2948.75,-682.5,69.92,-164.16,-497.04
348860.6776,40.809,-90.585,1012.112,-673.75,2712.5,-542.5,77.52,-174.8,-474.24
348860.7276,41.846,-95.709,1011.746,26.25,3657.5,-315.0,63.84,-162.64,-487.92
348860.7776,39.65,-96.807,1011.075,131.25,3692.5,-901.25,65.36,-174.8,-490.96
348860.8276,37.149,-92.781,1009.489,-105.0,2668.75,-988.75,80.56,-164.16,-486.4
348860.8776,41.48,-92.659,1008.757,-183.75,2765.0,-70.0,68.4,-176.32,-487.92
348860.9276,41.297,-93.94,1009.245,-560.0,3115.0,297.5,69.92,-168.72,-498.56
348860.9776,38.796,-99.064,1014.125,-437.5,2817.5,-218.75,80.56,-164.16,-497.04
348861.0276,43.493,-97.661,1010.77,236.25,2695.0,-367.5,91.2,-165.68,-475.76
348861.0776,36.722,-100.406,1013.088,210.0,2616.25,-892.5,77.52,-179.36,-478.8
348861.1276,39.833,-99.552,1009.306,376.25,2677.5,-1181.25,79.04,-168.72,-495.52
348861.1776,43.005,-89.914,1010.77,1443.75,2555.0,-332.5,77.52,-168.72,-475.76
348861.2276,38.613,-86.986,1012.051,-393.75,3088.75,-175.0,62.32,-162.64,-481.84
348861.2776,41.724,-102.175,1008.818,-988.75,2485.0,-8.75,79.04,-164.16,-478.8
348861.3276,40.199,-103.395,1011.868,140.0,2143.75,-743.75,86.64,-153.52,-489.44
348861.3776,44.042,-103.395,1013.637,901.25,2248.75,-385.0,79.04,-165.68,-481.84
348861.4276,44.164,-93.635,1010.587,1610.0,2633.75,481.25,66.88,-170.24,-466.64
348861.4776,45.323,-87.84,1007.903,1408.75,3053.75,131.25,68.4,-165.68,-490.96
348861.5276,39.894,-85.034,1011.563,1041.25,3193.75,-1058.75,62.32,-171.76,-492.48
348861.5776,45.018,-78.507,1009.611,315.0,2432.5,-1015.0,82.08,-168.72,-483.36
348861.6276,47.458,-84.363,1008.94,-490.0,2782.5,-673.75,82.08,-170.24,-481.84
348861.6776,39.833,-93.818,1010.099,-603.75,3543.75,-822.5,68.4,-173.28,-497.04
348861.7276,37.515,-95.953,1013.454,-367.5,3010.0,-1435.0,79.04,-170.24,-490.96
348861.7776,42.639,-95.465,1011.441,96.25,2975.0,-831.25,69.92,-182.4,-486.4
348861.8276,44.225,-91.012,1009.733,-96.25,3158.75,-227.5,63.84,-164.16,-478.8
348861.8776,43.371,-92.598,1008.757,218.75,3176.25,-595.0,60.8,-168.72,-490.96
348861.9276,39.223,-89.67,1009.123,236.25,2957.5,-1373.75,77.52,-171.76,-495.52
348861.9776,40.748,-93.452,1012.356,-498.75,2782.5,-1347.5,76.0,-174.8,-478.8
348862.0276,43.066,-92.72,1010.892,52.5,3167.5,-1190.0,76.0,-162.64,-487.92
348862.0776,42.7,-91.317,1008.879,516.25,3237.5,-1067.5,69.92,-173.28,-489.44
348862.1276,42.761,-85.827,1010.709,665.0,3613.75,-1155.0,86.64,-170.24,-475.76
348862.1776,39.894,-92.11,1008.208,-525.0,3080.0,-735.0,65.36,-177.84,-489.44
348862.2276,43.249,-88.084,1006.744,-551.25,3246.25,-883.75,77.52,-170.24,-487.92
348862.2776,40.565,-95.282,1010.099,-376.25,3220.0,-997.5,79.04,-161.12,-478.8
348862.3276,39.65,-90.219,1012.722,218.75,3062.5,-1277.5,79.04,-176.32,-487.92
348862.3776,42.029,-90.341,1010.831,140.0,2861.25,-1155.0,76.0,-165.68,-483.36
348862.4276,37.82,-84.119,1012.6,43.75,2922.5,-901.25,74.48,-165.68,-484.88
348862.4776,39.589,-86.925,1012.173,8.75,2887.5,-717.5,86.64,-168.72,-484.88
348862.5277,43.31,-88.145,1011.136,-857.5,3045.0,-507.5,79.04,-177.84,-475.76
348862.5776,38.674,-92.781,1011.624,-472.5,3482.5,-822.5,76.0,-162.64,-489.44
348862.6277,38.125,-92.476,1008.269,-350.0,2922.5,-1067.5,72.96,-177.84,-490.96
348862.6776,60.085,-89.548,1004.853,778.75,5766.25,3176.25,76.0,-167.2,-489.44
348862.7276,20.618,-87.169,1015.101,481.25,5442.5,3745.0,63.84,-171.76,-484.88
348862.7776,22.509,-91.012,1013.637,-918.75,1146.25,-2196.25,83.6,-165.68,-494.0
348862.8283,52.338,-89.243,1010.465,-673.75,2117.5,-3832.5,69.92,-167.2,-483.36
348862.8776,41.785,-92.964,1011.868,-953.75,3727.5,-2485.0,62.32,-171.76,-484.88
348862.9276,39.284,-103.578,1011.319,-376.25,3473.75,-1741.25,62.32,-171.76,-494.0
348862.9776,41.358,-95.77,1011.563,1636.25,2642.5,-3132.5,74.48,-177.84,-475.76
348863.0276,38.552,-90.036,1010.587,577.5,4497.5,-1662.5,79.04,-159.6,-490.96
348863.0776,22.997,-85.339,1015.894,-140.0,2476.25,-2940.0,66.88,-176.32,-507.68
348863.1276,36.539,-92.049,1011.563,-428.75,1723.75,-2625.0,77.52,-165.68,-483.36
348863.1776,43.432,-91.195,1008.208,-857.5,3736.25,-385.0,63.84,-170.24,-480.32
348863.2276,36.295,-96.197,1010.16,-770.0,3858.75,43.75,69.92,-164.16,-494.0
348863.2776,30.805,-95.77,1015.101,-78.75,2966.25,-1146.25,62.32,-173.28,-489.44
348863.3276,42.456,-93.452,1010.465,341.25,2572.5,-1295.0,80.56,-176.32,-481.84
348863.3776,38.064,-90.524,1011.746,17.5,3535.0,-962.5,83.6,-173.28,-478.8
348863.4276,34.343,-90.646,1014.125,-735.0,2940.0,-175.0,71.44,-170.24,-486.4
348863.4776,35.136,-95.953,1012.661,-280.0,2712.5,-463.75,74.48,-165.68,-497.04
348863.5276,34.343,-91.5,1010.16,-26.25,2765.0,-700.0,71.44,-170.24,-480.32
348863.5776,37.21,-91.927,1011.502,-192.5,2598.75,-831.25,62.32,-170.24,-494.0
348863.6276,37.759,-91.439,1009.001,-393.75,2782.5,-131.25,72.96,-182.4,-492.48
348863.6776,40.138,-97.234,1009.367,-691.25,3193.75,341.25,77.52,-176.32,-484.88
348863.7276,35.624,-100.589,1012.722,-218.75,3167.5,-297.5,79.04,-164.16,-481.84
348863.7776,37.637,-93.452,1011.075,428.75,3088.75,-1330.0,71.44,-165.68,-498.56
348863.8276,38.613,-91.256,1011.258,-507.5,3255.0,-1216.25,83.6,-162.64,-483.36
348863.8776,41.541,-103.578,1007.476,647.5,3403.75,-455.0,72.96,-180.88,-483.36
348863.9276,29.524,-93.269,1009.855,2966.25,4235.0,603.75,65.36,-164.16,-484.88
348863.9776,21.655,-79.727,1012.844,1041.25,2870.0,-455.0,82.08,-179.36,-495.52
348864.0276,34.648,-81.008,1009.855,-1513.75,2703.75,-52.5,71.44,-161.12,-486.4
348864.0776,41.785,-90.89,1004.609,-498.75,2546.25,-140.0,69.92,-174.8,-498.56
348864.1276,41.724,-90.463,1010.526,-883.75,3815.0,-743.75,76.0,-177.84,-507.68
348864.1776,32.94,-95.831,1011.502,-87.5,3438.75,-1120.0,80.56,-173.28,-489.44
348864.2276,28.914,-100.589,1013.82,1417.5,2800.0,-988.75,83.6,-173.28,-477.28
348864.2776,36.478,-83.814,1006.866,1233.75,2896.25,-446.25,63.84,-174.8,-494.0
348864.3276,35.685,-80.581,1011.38,-87.5,2992.5,-245.0,77.52,-177.84,-494.0
348864.3776,34.099,-85.705,1013.881,-831.25,2765.0,-131.25,82.08,-176.32,-494.0
348864.4276,37.21,-95.099,1012.6,-761.25,3220.0,-997.5,80.56,-171.76,-480.32
348864.4776,32.086,-90.219,1012.905,-752.5,3062.5,-1400.0,65.36,-159.6,-495.52
348864.5276,33.672,-93.269,1010.77,-743.75,3158.75,-1583.75,80.56,-171.76,-478.8
348864.5776,33.672,-93.635,1009.489,-113.75,2878.75,-875.0,69.92,-170.24,-489.44
348864.6276,34.526,-93.574,1010.465,-455.0,2966.25,341.25,76.0,-162.64,-483.36
348864.6776,29.951,-94.55,1011.014,-393.75,2135.0,262.5,71.44,-159.6,-492.48
348864.7276,37.332,-98.271,1013.332,-288.75,2021.25,-411.25,71.44,-165.68,-489.44
348864.7776,39.162,-98.088,1010.465,560.0,2616.25,-1181.25,77.52,-165.68,-486.4
348864.8276,41.297,-94.611,1009.123,1426.25,2686.25,-1093.75,59.28,-168.72,-484.88
348864.8776,39.955,-80.825,1008.818,148.75,3351.25,-358.75,85.12,-177.84,-492.48
348864.9276,36.112,-94.306,1009.855,-428.75,3106.25,-166.25,86.64,-170.24,-484.88
348864.9776,36.844,-91.988,1009.489,-595.0,2826.25,-1242.5,71.44,-161.12,-483.36
348865.0276,39.833,-98.027,1013.271,-463.75,2940.0,-1268.75,77.52,-161.12,-484.88
348865.0776,38.247,-97.722,1012.844,-43.75,3561.25,-1015.0,85.12,-170.24,-494.0
348865.1276,37.759,-95.282,1009.123,271.25,3018.75,-638.75,74.48,-170.24,-477.28
348865.1776,34.587,-85.705,1010.343,35.0,2931.25,-682.5,63.84,-155.04,-490.96
348865.2276,33.794,-90.585,1011.441,253.75,2511.25,-560.0,60.8,-180.88,-474.24
348865.2776,39.711,-90.28,1012.112,-341.25,3036.25,-612.5,83.6,-170.24,-483.36
348865.3276,36.356,-92.049,1012.966,-253.75,3202.5,-586.25,82.08,-159.6,-484.88
348865.3776,33.855,-92.964,1012.417,-507.5,2861.25,-1233.75,65.36,-168.72,-490.96
348865.4276,32.879,-95.77,1011.807,-245.0,2441.25,-1312.5,72.96,-170.24,-497.04
348865.4776,42.212,-93.086,1008.391,-166.25,2896.25,105.0,65.36,-174.8,-477.28
348865.5276,32.33,-95.587,1012.051,-113.75,3106.25,-52.5,69.92,-176.32,-498.56
348865.5776,36.112,-93.452,1013.759,-218.75,2800.0,-752.5,68.4,-167.2,-489.44
348865.6276,41.785,-96.38,1012.417,-227.5,2721.25,-1190.0,83.6,-167.2,-487.92
348865.6776,41.175,-97.173,1012.661,-17.5,3141.25,-1163.75,85.12,-170.24,-484.88
348865.7276,39.04,-93.33,1008.879,927.5,3202.5,-682.5,77.52,-164.16,-480.32
348865.7776,33.489,-84.607,1013.576,-332.5,3211.25,-603.75,85.12,-153.52,-492.48
348865.8276,37.515,-96.38,1008.879,-341.25,2870.0,-446.25,66.88,-182.4,-494.0
348865.8778,38.796,-93.208,1009.184,-1015.0,3692.5,-1321.25,76.0,-173.28,-495.52
348865.9276,31.842,-100.894,1008.94,-70.0,3552.5,-1155.0,60.8,-174.8,-490.96
348865.9777,33.306,-95.709,1014.552,52.5,3543.75,-1172.5,74.48,-167.2,-478.8
348866.0276,35.624,-93.635,1009.001,630.0,3167.5,-498.75,80.56,-176.32,-483.36
348866.0777,31.842,-86.193,1011.014,490.0,3465.0,-857.5,76.0,-168.72,-494.0
348866.1276,32.147,-89.243,1011.624,-306.25,2773.75,-577.5,66.88,-174.8,-489.44
348866.1776,35.319,-93.452,1012.051,-726.25,3150.0,-682.5,79.04,-168.72,-481.84
348866.2276,36.478,-92.964,1015.223,0.0,3237.5,-953.75,60.8,-174.8,-480.32
348866.2776,33.672,-95.099,1009.489,-332.5,3675.0,-2205.0,76.0,-174.8,-484.88
348866.3276,33.062,-97.722,1011.685,0.0,3491.25,-1968.75,86.64,-165.68,-480.32
348866.3776,31.049,-96.746,1011.075,-271.25,3088.75,-770.0,71.44,-168.72,-484.88
348866.4276,29.524,-97.417,1012.844,280.0,2747.5,-192.5,68.4,-158.08,-481.84
348866.4776,32.33,-96.868,1010.221,323.75,2773.75,-472.5,72.96,-161.12,-500.08
348866.5276,32.818,-93.147,1011.929,87.5,2441.25,-516.25,77.52,-176.32,-487.92
348866.5776,34.465,-96.075,1010.343,140.0,2590.0,-236.25,69.92,-174.8,-484.88
348866.6276,37.82,-91.134,1008.147,-691.25,3482.5,-122.5,71.44,-173.28,-498.56
348866.6776,31.11,-94.428,1011.136,446.25,3263.75,-980.0,86.64,-176.32,-480.32
348866.7276,32.086,-86.193,1014.613,-1023.75,2712.5,-743.75,65.36,-174.8,-481.84
348866.7776,37.21,-100.955,1013.027,-420.0,2607.5,-131.25,59.28,-174.8,-489.44
348866.8276,32.696,-98.393,1011.136,-673.75,2966.25,-472.5,72.96,-174.8,-487.92
348866.8776,32.818,-98.027,1009.916,-35.0,3027.5,-560.0,72.96,-168.72,-474.24
348866.9276,33.184,-95.343,1012.173,-140.0,2948.75,-735.0,71.44,-165.68,-489.44
348866.9776,35.563,-94.367,1007.964,463.75,2870.0,-542.5,79.04,-176.32,-484.88
348867.0276,33.855,-88.389,1009.062,-87.5,3115.0,-918.75,83.6,-161.12,-480.32
348867.0776,37.576,-94.672,1014.369,-218.75,2940.0,-533.75,77.52,-177.84,-487.92
348867.1276,32.086,-99.674,1012.234,-245.0,3421.25,-577.5,71.44,-159.6,-484.88
348867.1776,30.683,-100.101,1011.563,621.25,2878.75,-1172.5,88.16,-173.28,-497.04
348867.2276,34.099,-94.367,1010.221,61.25,2546.25,-1382.5,80.56,-171.76,-486.4
348867.2776,32.025,-93.879,1009.794,105.0,2677.5,-840.0,74.48,-159.6,-490.96
348867.3276,35.258,-90.89,1011.441,52.5,2747.5,551.25,79.04,-170.24,-495.52
348867.3776,35.319,-98.027,1010.16,-113.75,3220.0,288.75,83.6,-159.6,-480.32
348867.4276,31.781,-96.563,1014.125,507.5,3010.0,-761.25,82.08,-170.24,-492.48
348867.4776,36.844,-99.369,1013.027,96.25,2843.75,-1566.25,62.32,-174.8,-471.2
348867.5276,36.844,-98.027,1012.417,560.0,3228.75,-1470.0,69.92,-173.28,-497.04
348867.5776,27.938,-88.999,1007.293,420.0,3045.0,-866.25,79.04,-161.12,-489.44
348867.6276,24.949,-92.598,1011.868,822.5,3220.0,-1855.0,71.44,-171.76,-486.4
348867.6776,27.145,-93.757,1017.053,533.75,1846.25,-1618.75,77.52,-171.76,-494.0
348867.7276,37.637,-90.89,1007.842,420.0,2660.0,-901.25,72.96,-167.2,-483.36
348867.7776,39.467,-93.513,1010.587,183.75,2756.25,-656.25,79.04,-170.24,-484.88
348867.8276,37.149,-91.073,1012.295,218.75,3106.25,-446.25,62.32,-167.2,-492.48
348867.8776,42.822,-90.951,1010.038,-1102.5,3088.75,-927.5,77.52,-171.76,-498.56
348867.9276,40.626,-89.304,1010.526,393.75,4007.5,-1557.5,85.12,-173.28,-487.92
348867.9776,29.585,-88.45,1012.905,-358.75,3281.25,-980.0,76.0,-180.88,-463.6
348868.0276,33.855,-89.914,1011.258,-17.5,3246.25,-1076.25,68.4,-164.16,-486.4
348868.0776,35.319,-92.842,1012.173,367.5,3342.5,-787.5,71.44,-177.84,-490.96
348868.1276,29.707,-90.829,1010.404,-105.0,3981.25,-525.0,82.08,-177.84,-497.04
348868.1776,24.4,-83.997,1008.635,-385.0,2870.0,-1356.25,76.0,-177.84,-490.96
348868.2276,32.879,-91.866,1008.635,-516.25,2695.0,-586.25,77.52,-188.48,-490.96
348868.2776,32.513,-94.733,1008.94,-52.5,3255.0,-61.25,88.16,-174.8,-490.96
348868.3276,29.28,-97.6,1013.82,-332.5,2983.75,-227.5,74.48,-164.16,-480.32
348868.3776,35.807,-97.905,1013.271,-105.0,2826.25,-962.5,82.08,-173.28,-487.92
348868.4276,29.036,-93.818,1010.648,385.0,2931.25,-1111.25,82.08,-167.2,-504.64
348868.4776,33.001,-82.594,1013.454,367.5,3333.75,-656.25,74.48,-176.32,-489.44
348868.5276,28.853,-90.341,1012.173,-673.75,2800.0,113.75,68.4,-171.76,-475.76
348868.5776,33.794,-89.792,1009.916,288.75,2782.5,-341.25,63.84,-168.72,-498.56
348868.6276,31.293,-92.659,1013.576,-498.75,2625.0,-420.0,83.6,-176.32,-492.48
348868.6776,35.624,-95.16,1011.075,218.75,2870.0,-481.25,76.0,-177.84,-483.36
348868.7276,38.857,-93.513,1010.404,-87.5,3010.0,-437.5,71.44,-171.76,-483.36
348868.7776,41.846,-94.672,1008.635,446.25,3946.25,-1006.25,71.44,-159.6,-495.52
348868.8276,26.291,-86.376,1013.088,918.75,3928.75,-1487.5,83.6,-180.88,-480.32
348868.8776,23.79,-83.692,1009.123,-227.5,3036.25,-1732.5,85.12,-170.24,-490.96
348868.9276,26.535,-91.378,1009.184,-945.0,2292.5,-2003.75,69.92,-171.76,-489.44
348868.9776,34.404,-96.441,1010.77,0.0,1802.5,-1181.25,85.12,-165.68,-489.44
348869.0276,30.744,-93.208,1012.112,-8.75,2318.75,-35.0,86.64,-183.92,-490.96
348869.0776,36.295,-94.855,1011.868,612.5,2520.0,437.5,79.04,-182.4,-481.84
348869.1276,32.757,-91.195,1013.942,35.0,2292.5,218.75,77.52,-162.64,-504.64
348869.1776,42.517,-97.234,1012.844,743.75,2843.75,-315.0,69.92,-182.4,-478.8
348869.2278,34.831,-94.123,1013.332,26.25,3762.5,-1295.0,76.0,-180.88,-478.8
348869.2776,37.027,-88.145,1010.831,1321.25,3482.5,-1723.75,60.8,-168.72,-492.48
348869.3277,29.707,-84.058,1014.43,-630.0,3631.25,-796.25,77.52,-171.76,-490.96
348869.3776,32.879,-95.526,1008.33,1041.25,3036.25,-35.0,86.64,-183.92,-478.8
348869.4277,20.74,-87.962,1013.515,-498.75,3010.0,-1076.25,60.8,-185.44,-468.16
348869.4776,25.132,-94.245,1014.552,-1295.0,2677.5,-1872.5,72.96,-171.76,-492.48
348869.5276,31.354,-102.175,1013.698,201.25,2362.5,-1085.0,88.16,-176.32,-481.84
348869.5776,37.271,-92.232,1010.587,1251.25,2878.75,516.25,74.48,-177.84,-495.52
348869.6276,32.269,-81.984,1013.332,341.25,3211.25,-8.75,68.4,-168.72,-481.84
348869.6776,41.358,-86.803,1009.733,988.75,3123.75,-472.5,89.68,-173.28,-492.48
348869.7276,34.526,-85.278,1009.428,8.75,3517.5,-1408.75,82.08,-182.4,-498.56
348869.7776,33.794,-92.659,1011.319,542.5,3193.75,-1776.25,74.48,-164.16,-492.48
348869.8276,33.184,-83.997,1010.709,402.5,3447.5,-875.0,65.36,-171.76,-501.6
348869.8776,30.622,-85.278,1011.319,-17.5,3902.5,323.75,86.64,-167.2,-490.96
348869.9276,22.082,-87.596,1011.99,52.5,2625.0,490.0,74.48,-177.84,-486.4
348869.9776,27.938,-84.851,1012.783,-630.0,2222.5,192.5,71.44,-174.8,-487.92
348870.0276,32.574,-95.892,1013.454,-988.75,2528.75,-122.5,71.44,-168.72,-498.56
348870.0776,37.271,-95.77,1012.295,-568.75,3237.5,-393.75,80.56,-173.28,-494.0
348870.1276,34.709,-92.72,1011.38,1338.75,3097.5,-638.75,79.04,-161.12,-503.12
348870.1776,32.879,-80.154,1010.16,280.0,2878.75,-980.0,65.36,-167.2,-500.08
348870.2276,37.82,-90.829,1010.404,-367.5,3123.75,-603.75,68.4,-168.72,-487.92
348870.2776,32.391,-93.574,1013.271,-542.5,3088.75,-1400.0,85.12,-182.4,-480.32
348870.3276,36.6,-94.001,1013.881,490.0,2642.5,-1207.5,69.92,-173.28,-504.64
348870.3776,33.245,-91.866,1014.308,568.75,3158.75,-901.25,62.32,-177.84,-486.4
348870.4276,34.221,-86.742,1011.807,1225.0,3080.0,87.5,69.92,-180.88,-497.04
348870.4776,31.232,-78.263,1010.953,568.75,2870.0,-113.75,76.0,-183.92,-477.28
348870.5276,38.308,-82.045,1011.868,-638.75,3325.0,-245.0,72.96,-159.6,-492.48
348870.5776,27.999,-89.243,1012.478,-542.5,3753.75,-953.75,88.16,-170.24,-490.96
348870.6276,26.596,-90.768,1009.55,-323.75,3281.25,-1846.25,85.12,-179.36,-481.84
348870.6776,29.219,-86.864,1012.539,-525.0,3036.25,-1058.75,63.84,-171.76,-480.32
348870.7276,27.389,-92.781,1012.661,-227.5,2756.25,-603.75,59.28,-173.28,-494.0
348870.7776,33.794,-90.951,1011.563,-78.75,2380.0,-297.5,77.52,-171.76,-486.4
348870.8276,34.221,-92.354,1010.831,-61.25,2598.75,446.25,83.6,-176.32,-480.32
348870.8776,32.391,-89.365,1011.075,-358.75,2668.75,201.25,72.96,-162.64,-495.52
348870.9276,37.454,-94.977,1012.295,-350.0,2686.25,-988.75,86.64,-170.24,-498.56
348870.9776,39.955,-94.062,1013.942,805.0,3097.5,-1408.75,76.0,-171.76,-478.8
348871.0276,34.404,-86.437,1014.857,1023.75,3596.25,-1610.0,77.52,-170.24,-490.96
348871.0776,29.036,-91.5,1021.872,-621.25,2712.5,-1251.25,71.44,-176.32,-498.56
348871.1276,40.504,-107.238,1007.72,2922.5,3001.25,-1338.75,77.52,-173.28,-487.92
348871.1776,26.962,-84.119,1006.805,2135.0,3832.5,-1225.0,83.6,-177.84,-466.64
348871.2276,30.805,-80.642,1010.465,2485.0,3421.25,-1268.75,76.0,-173.28,-494.0
348871.2776,25.925,-69.601,1008.391,1067.5,3325.0,-857.5,65.36,-188.48,-504.64
348871.3276,28.487,-73.322,1009.733,708.75,2765.0,-892.5,92.72,-176.32,-480.32
348871.3776,30.012,-66.795,1012.234,-551.25,2852.5,-533.75,71.44,-174.8,-484.88
348871.4276,31.354,-78.08,1015.65,-1461.25,3071.25,-17.5,88.16,-182.4,-506.16
348871.4776,30.317,-88.755,1015.711,-595.0,3001.25,-857.5,66.88,-180.88,-487.92
348871.5276,31.415,-78.446,1011.38,472.5,3333.75,-1076.25,94.24,-179.36,-492.48
348871.5776,32.635,-83.753,1010.587,122.5,3106.25,-857.5,77.52,-167.2,-500.08
348871.6276,29.829,-77.47,1009.245,236.25,2878.75,-481.25,77.52,-176.32,-506.16
348871.6776,35.502,-80.642,1010.221,-1050.0,3106.25,96.25,77.52,-173.28,-494.0
348871.7276,31.415,-82.289,1012.661,-980.0,3325.0,-166.25,74.48,-171.76,-480.32
348871.7776,30.683,-95.587,1016.321,-1505.0,2835.0,-1225.0,66.88,-174.8,-500.08
348871.8276,34.343,-100.955,1019.249,752.5,2528.75,-1636.25,77.52,-183.92,-490.96
348871.8776,35.807,-87.169,1012.112,1391.25,3325.0,-1120.0,69.92,-179.36,-501.6
348871.9276,30.744,-72.59,1009.672,1855.0,4147.5,-1015.0,77.52,-177.84,-497.04
348871.9776,25.925,-71.065,1012.417,-26.25,3456.25,-656.25,77.52,-168.72,-495.52
348872.0276,29.158,-78.507,1006.805,1128.75,3045.0,-822.5,86.64,-179.36,-484.88
348872.0776,29.097,-76.86,1012.173,-306.25,3071.25,-630.0,83.6,-182.4,-490.96
348872.1276,29.219,-85.095,1014.43,525.0,3552.5,-323.75,74.48,-170.24,-495.52
348872.1776,23.424,-75.884,1011.624,446.25,2353.75,-148.75,68.4,-171.76,-497.04
348872.2276,28.731,-76.982,1010.282,507.5,2808.75,-297.5,82.08,-171.76,-480.32
348872.2776,27.45,-72.773,1014.613,-393.75,2213.75,-726.25,71.44,-179.36,-495.52
348872.3276,30.317,-81.008,1017.358,-1120.0,2537.5,-1470.0,76.0,-182.4,-487.92
348872.3776,34.099,-92.659,1014.796,428.75,2782.5,-1225.0,76.0,-180.88,-486.4
348872.4276,28.853,-90.951,1016.626,1260.0,2668.75,-1391.25,74.48,-173.28,-494.0
348872.4776,32.757,-79.544,1009.489,2266.25,2397.5,-1907.5,66.88,-171.76,-501.6
348872.5276,36.844,-68.747,1011.014,708.75,2931.25,-358.75,95.76,-191.52,-486.4
348872.5778,35.258,-73.627,1011.685,306.25,3543.75,551.25,80.56,-183.92,-486.4
348872.6276,26.901,-75.335,1012.783,-586.25,2975.0,-411.25,62.32,-179.36,-495.52
348872.6778,33.367,-76.128,1012.539,-533.75,2835.0,-1321.25,74.48,-180.88,-489.44
348872.7276,29.341,-82.716,1010.709,218.75,3246.25,-1566.25,80.56,-177.84,-478.8
348872.7777,29.951,-69.601,1016.016,1767.5,2703.75,-2327.5,77.52,-171.76,-495.52
348872.8276,33.672,-66.246,1014.43,131.25,2590.0,-1391.25,66.88,-168.72,-486.4
348872.8776,29.524,-74.786,1007.537,78.75,3447.5,-218.75,86.64,-171.76,-487.92
348872.9276,23.912,-79.544,1013.454,-848.75,3036.25,-638.75,77.52,-182.4,-483.36
348872.9776,30.744,-76.067,1014.125,43.75,2677.5,-612.5,80.56,-177.84,-484.88
348873.0276,32.879,-79.544,1011.502,183.75,2905.0,245.0,74.48,-173.28,-497.04
348873.0776,27.755,-80.032,1014.186,735.0,2940.0,87.5,76.0,-174.8,-498.56
348873.1276,31.354,-74.542,1013.149,253.75,2782.5,-332.5,69.92,-173.28,-480.32
348873.1776,34.709,-75.579,1015.223,52.5,3132.5,-306.25,80.56,-180.88,-490.96
348873.2276,30.866,-76.433,1014.064,297.5,3333.75,-463.75,79.04,-171.76,-480.32
348873.2776,28.609,-74.115,1010.892,533.75,2712.5,-840.0,77.52,-180.88,-483.36
348873.3276,31.842,-68.564,1011.197,315.0,2791.25,-376.25,79.04,-171.76,-495.52
348873.3776,28.853,-69.357,1012.844,-568.75,3010.0,350.0,74.48,-179.36,-497.04
348873.4276,30.683,-77.897,1013.942,-341.25,2660.0,-61.25,91.2,-182.4,-486.4
348873.4776,30.195,-76.006,1014.003,-463.75,2765.0,-778.75,65.36,-183.92,-472.72
348873.5276,36.844,-78.69,1014.186,-638.75,3237.5,-1050.0,74.48,-168.72,-490.96
348873.5776,33.245,-80.032,1013.576,-262.5,3535.0,-1330.0,74.48,-168.72,-490.96
348873.6276,31.842,-86.62,1009.245,350.0,3535.0,-1111.25,82.08,-180.88,-483.36
348873.6776,29.097,-77.836,1014.064,1662.5,3482.5,-1181.25,63.84,-182.4,-504.64
348873.7276,25.742,-74.481,1012.478,70.0,2616.25,-612.5,63.84,-174.8,-492.48
348873.7776,33.428,-71.004,1011.319,700.0,2555.0,-131.25,86.64,-179.36,-489.44
348873.8276,30.378,-77.287,1014.125,-17.5,3167.5,-533.75,76.0,-191.52,-487.92
348873.8776,27.877,-76.433,1013.698,367.5,2721.25,-1093.75,63.84,-179.36,-494.0
348873.9276,30.866,-71.187,1012.844,-481.25,3010.0,-498.75,77.52,-186.96,-501.6
348873.9776,32.147,-72.895,1012.051,665.0,3675.0,-297.5,59.28,-176.32,-484.88
348874.0276,29.097,-71.309,1014.247,-210.0,3841.25,-647.5,82.08,-179.36,-498.56
348874.0776,27.633,-76.372,1015.528,-218.75,3587.5,-1076.25,85.12,-185.44,-495.52
348874.1276,26.108,-72.224,1012.051,332.5,3377.5,-1417.5,91.2,-190.0,-490.96
348874.1776,24.034,-72.773,1014.308,96.25,3053.75,-1496.25,74.48,-174.8,-492.48
348874.2276,28.609,-67.771,1009.611,-341.25,2738.75,-1076.25,79.04,-182.4,-498.56
348874.2776,27.267,-73.993,1011.868,-516.25,2852.5,-376.25,76.0,-180.88,-497.04
348874.3276,28.792,-77.592,1011.441,-866.25,3246.25,61.25,72.96,-179.36,-487.92
348874.3776,25.925,-80.703,1013.454,-665.0,3193.75,-542.5,69.92,-185.44,-484.88
348874.4276,26.962,-79.605,1012.661,-35.0,3132.5,-1356.25,76.0,-177.84,-475.76
348874.4776,35.136,-80.703,1014.369,-332.5,3596.25,-455.0,92.72,-180.88,-481.84
348874.5276,31.903,-80.825,1011.136,201.25,4278.75,-183.75,80.56,-170.24,-504.64
348874.5776,19.032,-80.276,1009.306,1137.5,3377.5,-1268.75,77.52,-183.92,-492.48
348874.6276,19.947,-64.538,1016.687,-481.25,2441.25,-1120.0,89.68,-183.92,-489.44
348874.6776,23.973,-80.154,1014.186,-1128.75,2143.75,-297.5,86.64,-177.84,-484.88
348874.7276,27.999,-81.557,1013.21,-245.0,2931.25,-280.0,77.52,-179.36,-486.4
348874.7776,27.267,-81.618,1013.088,323.75,3045.0,-883.75,68.4,-170.24,-492.48
348874.8276,26.779,-75.152,1015.589,586.25,2983.75,-1128.75,79.04,-176.32,-506.16
348874.8776,26.23,-73.566,1008.147,-218.75,2931.25,-945.0,71.44,-183.92,-481.84
348874.9276,27.755,-67.893,1009.245,-813.75,3648.75,-866.25,77.52,-182.4,-498.56
348874.9776,24.949,-81.374,1013.515,-1741.25,3412.5,-455.0,71.44,-170.24,-507.68
348875.0276,18.422,-89.487,1016.626,-1023.75,2616.25,-1767.5,88.16,-179.36,-489.44
348875.0776,33.062,-90.829,1012.478,175.0,2625.0,-1872.5,76.0,-180.88,-487.92
348875.1276,29.402,-84.79,1012.234,1128.75,3456.25,-1198.75,71.44,-179.36,-483.36
348875.1776,18.91,-74.786,1010.221,1636.25,3648.75,-332.5,74.48,-177.84,-494.0
348875.2276,19.276,-66.246,1013.454,665.0,2966.25,-245.0,89.68,-191.52,-489.44
348875.2776,20.069,-71.614,1011.38,-866.25,2870.0,-411.25,74.48,-185.44,-486.4
348875.3276,19.703,-76.067,1012.783,-140.0,3552.5,-708.75,71.44,-179.36,-497.04
348875.3776,15.555,-77.775,1016.748,-805.0,2756.25,-437.5,77.52,-186.96,-486.4
348875.4276,27.877,-80.276,1015.772,805.0,2240.0,-1058.75,85.12,-179.36,-489.44
348875.4776,25.01,-78.324,1012.234,726.25,3132.5,-437.5,72.96,-186.96,-486.4
348875.5276,25.803,-70.943,1013.271,1198.75,2992.5,245.0,72.96,-182.4,-497.04
348875.5776,24.278,-69.052,1016.443,-892.5,2721.25,-131.25,79.04,-171.76,-497.04
348875.6276,29.646,-81.008,1010.709,-560.0,2765.0,218.75,82.08,-168.72,-489.44
348875.6776,28.487,-78.934,1014.308,-840.0,3106.25,-376.25,72.96,-186.96,-501.6
348875.7276,30.683,-78.568,1014.735,-918.75,3990.0,-113.75,88.16,-171.76,-503.12
348875.7776,16.775,-85.4,1014.857,-708.75,3902.5,-1216.25,85.12,-174.8,-494.0
348875.8276,20.679,-84.363,1009.733,1470.0,2511.25,-2327.5,76.0,-177.84,-492.48
348875.8776,20.069,-77.287,1013.149,1198.75,2765.0,-1426.25,77.52,-179.36,-503.12
348875.9278,31.232,-70.76,1011.441,1688.75,3141.25,673.75,83.6,-168.72,-498.56
348875.9776,19.276,-68.381,1013.82,638.75,3535.0,-218.75,66.88,-186.96,-477.28
348876.0277,19.581,-71.919,1012.417,306.25,2852.5,-936.25,71.44,-183.92,-501.6
348876.0776,21.289,-72.468,1011.99,455.0,2633.75,-1303.75,79.04,-176.32,-501.6
348876.1276,23.79,-71.553,1011.075,280.0,2572.5,-455.0,98.8,-177.84,-501.6
348876.1776,22.326,-70.76,1011.197,17.5,2721.25,166.25,69.92,-179.36,-494.0
348876.2276,22.631,-64.66,1009.916,-358.75,2467.5,192.5,72.96,-176.32,-483.36
348876.2776,30.073,-74.603,1009.55,-1330.0,3010.0,-183.75,86.64,-173.28,-503.12
348876.3276,26.169,-79.117,1012.966,-490.0,3202.5,-805.0,82.08,-176.32,-484.88
348876.3776,19.581,-82.045,1013.576,52.5,2695.0,-1015.0,72.96,-168.72,-498.56
348876.4276,27.877,-72.956,1014.003,507.5,3211.25,-1067.5,65.36,-179.36,-489.44
348876.4776,22.082,-75.03,1013.759,-866.25,3018.75,-262.5,57.76,-180.88,-490.96
348876.5276,24.766,-80.154,1009.733,498.75,2870.0,-910.0,86.64,-185.44,-483.36
348876.5776,26.352,-75.03,1010.77,105.0,3027.5,-945.0,82.08,-177.84,-492.48
348876.6276,23.546,-75.945,1015.467,253.75,3220.0,-866.25,85.12,-185.44,-490.96
348876.6776,24.339,-74.542,1014.064,367.5,3010.0,-1190.0,85.12,-183.92,-487.92
348876.7276,23.241,-74.42,1016.199,953.75,3176.25,-1671.25,66.88,-174.8,-490.96
348876.7776,20.862,-68.198,1012.844,183.75,2913.75,-1242.5,82.08,-177.84,-509.2
348876.8276,30.805,-69.906,1011.014,-306.25,3141.25,-472.5,91.2,-185.44,-483.36
348876.8776,23.729,-73.871,1014.796,-96.25,3648.75,-323.75,80.56,-177.84,-497.04
348876.9276,20.618,-71.553,1012.173,227.5,2712.5,-1050.0,76.0,-182.4,-506.16
348876.9776,23.424,-71.614,1012.112,-411.25,2572.5,-1076.25,79.04,-179.36,-490.96
348877.0276,29.829,-75.64,1011.99,-271.25,2773.75,-236.25,88.16,-179.36,-501.6
348877.0776,23.485,-78.629,1012.173,43.75,3281.25,-437.5,83.6,-183.92,-494.0
348877.1276,23.119,-74.908,1015.162,-166.25,3062.5,-621.25,82.08,-190.0,-498.56
348877.1776,24.888,-74.603,1014.857,-183.75,3097.5,-822.5,80.56,-173.28,-484.88
348877.2276,21.96,-77.958,1014.857,-183.75,3666.25,-1006.25,76.0,-176.32,-489.44
348877.2776,22.204,-72.773,1015.711,1321.25,2721.25,-778.75,68.4,-179.36,-497.04
348877.3276,23.18,-64.721,1015.162,-253.75,2948.75,-227.5,80.56,-180.88,-503.12
348877.3776,23.851,-78.995,1010.77,175.0,2878.75,70.0,86.64,-174.8,-490.96
348877.4276,23.973,-71.248,1011.258,-551.25,3395.0,-743.75,74.48,-185.44,-480.32
348877.4776,22.082,-74.847,1014.613,-446.25,2983.75,-735.0,79.04,-182.4,-497.04
348877.5276,23.79,-75.091,1011.624,96.25,2721.25,-778.75,89.68,-177.84,-480.32
348877.5776,26.047,-74.786,1011.075,288.75,3841.25,-560.0,83.6,-193.04,-492.48
348877.6276,15.494,-70.211,1016.321,-157.5,3395.0,-840.0,91.2,-183.92,-497.04
348877.6776,21.777,-76.25,1012.478,-315.0,2756.25,-647.5,68.4,-176.32,-501.6
348877.7276,25.254,-78.385,1012.661,96.25,3080.0,-446.25,85.12,-173.28,-503.12
348877.7776,15.067,-78.568,1017.724,691.25,2441.25,-971.25,82.08,-173.28,-497.04
348877.8276,17.995,-72.041,1012.173,700.0,1898.75,-455.0,69.92,-182.4,-497.04
348877.8776,25.803,-68.686,1009.733,-437.5,2327.5,280.0,91.2,-182.4,-497.04
348877.9276,27.633,-75.152,1015.528,-533.75,2397.5,446.25,82.08,-177.84,-494.0
348877.9776,28.731,-76.189,1012.539,-393.75,2668.75,-131.25,72.96,-180.88,-492.48
348878.0276,31.293,-78.202,1014.613,-586.25,2791.25,-945.0,83.6,-176.32,-501.6
348878.0776,27.877,-80.032,1014.003,-122.5,3027.5,-1513.75,89.68,-174.8,-494.0
348878.1276,22.631,-77.836,1012.051,428.75,3176.25,-1408.75,79.04,-179.36,-490.96
348878.1776,21.045,-68.808,1010.953,892.5,3430.0,-1076.25,80.56,-180.88,-495.52
348878.2276,19.703,-66.002,1014.552,-822.5,2975.0,-717.5,77.52,-180.88,-492.48
348878.2776,26.291,-75.274,1009.184,227.5,2397.5,-507.5,71.44,-179.36,-501.6
348878.3276,25.803,-78.812,1008.879,-1277.5,3097.5,-656.25,71.44,-176.32,-495.52
348878.3776,24.766,-75.152,1014.003,183.75,2555.0,-603.75,74.48,-186.96,-504.64
348878.4276,26.779,-80.459,1015.589,-192.5,2607.5,-787.5,80.56,-176.32,-504.64
348878.4776,28.243,-75.213,1011.075,420.0,2966.25,-525.0,91.2,-182.4,-483.36
348878.5276,21.838,-74.481,1013.332,-481.25,2843.75,-656.25,76.0,-183.92,-484.88
348878.5776,24.095,-76.25,1014.43,-210.0,2695.0,-673.75,74.48,-177.84,-500.08
348878.6276,30.927,-76.738,1012.234,-350.0,3246.25,-131.25,88.16,-190.0,-489.44
348878.6776,23.424,-75.396,1008.635,332.5,3657.5,-262.5,68.4,-185.44,-480.32
348878.7276,19.642,-74.176,1007.659,-691.25,3815.0,-568.75,76.0,-179.36,-481.84
348878.7776,19.825,-77.775,1015.223,-262.5,2555.0,-525.0,79.04,-171.76,-495.52
348878.8276,24.644,-80.337,1015.162,-227.5,2423.75,-455.0,88.16,-188.48,-483.36
348878.8776,28.365,-78.141,1011.807,192.5,2336.25,-892.5,83.6,-180.88,-475.76
348878.9276,27.145,-78.69,1016.077,603.75,2642.5,-1330.0,74.48,-182.4,-498.56
348878.9776,29.158,-76.555,1015.467,638.75,3132.5,-1461.25,68.4,-182.4,-489.44
348879.0276,23.973,-73.2,1011.99,971.25,3141.25,-945.0,92.72,-185.44,-489.44
348879.0776,25.437,-62.891,1014.43,673.75,3438.75,-997.5,77.52,-190.0,-489.44
348879.1276,24.583,-74.664,1011.38,-848.75,2975.0,148.75,77.52,-174.8,-504.64
348879.1776,23.18,-74.176,1008.086,-813.75,2800.0,-761.25,69.92,-173.28,-490.96
348879.2276,18.239,-81.191,1016.138,-402.5,2546.25,-2301.25,66.88,-185.44,-483.36
348879.2778,30.073,-75.945,1012.234,525.0,2502.5,-1872.5,76.0,-179.36,-495.52
348879.3276,28.975,-73.139,1013.576,1015.0,2791.25,-953.75,72.96,-176.32,-497.04
348879.3777,24.644,-67.71,1014.247,-122.5,3185.0,-743.75,85.12,-183.92,-489.44
348879.4276,29.951,-69.296,1013.271,-8.75,2992.5,-481.25,77.52,-186.96,-490.96
348879.4777,29.463,-73.993,1009.428,157.5,3753.75,-262.5,82.08,-171.76,-494.0
348879.5276,17.812,-73.566,1012.295,-271.25,3403.75,-708.75,76.0,-183.92,-495.52
348879.5776,19.093,-76.372,1012.661,-673.75,2835.0,-1163.75,88.16,-177.84,-495.52
348879.6276,22.509,-77.592,1014.125,-822.5,2747.5,-297.5,86.64,-179.36,-483.36
348879.6776,22.936,-79.788,1011.807,8.75,2712.5,0.0,94.24,-177.84,-489.44
348879.7276,27.572,-77.592,1015.162,70.0,2458.75,148.75,77.52,-179.36,-480.32
348879.7776,29.036,-84.363,1012.417,-227.5,2590.0,-1855.0,83.6,-180.88,-492.48
348879.8276,25.376,-84.79,1015.528,2397.5,2642.5,-3561.25,74.48,-185.44,-489.44
348879.8776,31.11,-61.549,1010.038,1260.0,2896.25,-2283.75,85.12,-190.0,-503.12
348879.9276,25.071,-58.255,1014.857,52.5,2546.25,-1557.5,77.52,-185.44,-489.44
348879.9776,32.513,-72.407,1009.489,-350.0,3596.25,-105.0,77.52,-183.92,-481.84
348880.0276,24.4,-77.958,1015.833,-61.25,3377.5,-630.0,74.48,-180.88,-500.08
348880.0776,24.827,-75.03,1014.369,350.0,3132.5,-813.75,72.96,-183.92,-504.64
348880.1276,25.62,-72.163,1013.637,105.0,3123.75,-26.25,89.68,-186.96,-497.04
348880.1776,27.267,-69.784,1011.197,525.0,3316.25,175.0,82.08,-182.4,-492.48
348880.2276,19.947,-68.442,1012.539,-113.75,2686.25,-656.25,72.96,-180.88,-503.12
348880.2776,30.5,-70.516,1013.332,-350.0,2861.25,-752.5,77.52,-180.88,-494.0
348880.3276,27.877,-72.102,1013.759,-393.75,3193.75,-516.25,83.6,-183.92,-494.0
348880.3776,21.289,-74.969,1014.735,122.5,2966.25,-1041.25,79.04,-182.4,-489.44
348880.4276,23.119,-71.065,1013.881,-70.0,2563.75,-1207.5,59.28,-180.88,-486.4
348880.4776,27.023,-73.444,1012.234,-630.0,3045.0,-105.0,83.6,-174.8,-503.12
348880.5276,22.875,-72.041,1013.759,-61.25,2756.25,17.5,92.72,-185.44,-494.0
348880.5776,25.742,-76.921,1012.539,-752.5,2502.5,-175.0,69.92,-177.84,-501.6
348880.6276,29.036,-78.568,1016.565,341.25,2931.25,-840.0,76.0,-182.4,-492.48
348880.6776,26.291,-79.605,1009.062,612.5,3132.5,-910.0,82.08,-185.44,-492.48
348880.7276,25.01,-65.819,1012.417,743.75,3097.5,-1225.0,95.76,-190.0,-489.44
348880.7776,24.278,-70.394,1015.528,-595.0,3097.5,-638.75,76.0,-176.32,-500.08
348880.8276,27.877,-74.542,1010.404,-105.0,3395.0,-376.25,80.56,-183.92,-490.96
348880.8776,22.387,-77.287,1013.698,26.25,2835.0,-822.5,82.08,-177.84,-494.0
348880.9276,24.827,-76.006,1012.661,253.75,2756.25,-857.5,86.64,-183.92,-492.48
348880.9776,27.023,-72.651,1012.844,332.5,3395.0,-437.5,80.56,-180.88,-481.84
348881.0276,22.57,-73.2,1010.404,726.25,3316.25,-717.5,80.56,-179.36,-497.04
348881.0776,20.374,-71.126,1013.576,-157.5,2677.5,-1146.25,85.12,-176.32,-492.48
348881.1276,25.681,-71.919,1014.186,-288.75,3053.75,-805.0,74.48,-179.36,-487.92
348881.1776,25.803,-75.701,1014.369,-96.25,3228.75,-883.75,77.52,-193.04,-498.56
348881.2276,18.422,-74.847,1011.929,-367.5,2817.5,-1216.25,82.08,-179.36,-483.36
348881.2776,22.875,-72.163,1012.661,-183.75,2651.25,-892.5,89.68,-188.48,-484.88
348881.3276,24.034,-71.37,1013.759,-507.5,2852.5,-8.75,83.6,-177.84,-507.68
348881.3776,24.888,-76.25,1013.454,-253.75,3132.5,-61.25,79.04,-197.6,-498.56
348881.4276,23.241,-76.921,1014.552,-131.25,2870.0,-682.5,74.48,-176.32,-474.24
348881.4776,25.01,-76.311,1013.271,-218.75,2913.75,-1688.75,74.48,-180.88,-475.76
348881.5276,29.402,-81.923,1014.369,507.5,2861.25,-2135.0,74.48,-182.4,-494.0
348881.5776,28.792,-72.529,1008.208,1163.75,3701.25,-621.25,77.52,-174.8,-492.48
348881.6276,14.884,-64.111,1013.576,-175.0,3088.75,-612.5,79.04,-185.44,-487.92
348881.6776,20.252,-74.664,1013.393,-901.25,2467.5,-603.75,72.96,-188.48,-497.04
348881.7276,24.949,-75.396,1010.953,-787.5,2826.25,-603.75,77.52,-185.44,-487.92
348881.7776,21.289,-79.666,1014.979,271.25,2940.0,-507.5,83.6,-174.8,-483.36
348881.8276,22.692,-75.396,1013.088,35.0,2581.25,-638.75,74.48,-177.84,-497.04
348881.8776,27.267,-74.969,1012.478,-183.75,2931.25,-350.0,80.56,-180.88,-486.4
348881.9276,21.777,-71.37,1013.332,-113.75,3045.0,-673.75,83.6,-186.96,-492.48
348881.9776,23.668,-74.237,1012.112,-306.25,2476.25,-708.75,60.8,-170.24,-490.96
348882.0276,26.291,-78.019,1014.918,-183.75,2931.25,-551.25,77.52,-176.32,-503.12
348882.0776,23.241,-75.823,1014.43,-140.0,2931.25,-630.0,77.52,-177.84,-504.64
348882.1276,22.692,-75.823,1012.478,201.25,2922.5,-1163.75,82.08,-186.96,-484.88
348882.1776,26.169,-71.187,1013.027,122.5,2651.25,-1067.5,71.44,-177.84,-483.36
348882.2276,23.973,-72.346,1014.186,-271.25,2983.75,-393.75,76.0,-185.44,-490.96
348882.2776,26.23,-76.189,1014.003,-586.25,2905.0,-227.5,80.56,-185.44,-489.44
348882.3276,23.058,-75.64,1015.467,113.75,3018.75,-936.25,80.56,-183.92,-480.32
348882.3776,25.132,-74.664,1016.321,-245.0,2677.5,-875.0,77.52,-191.52,-486.4
348882.4276,25.681,-77.897,1011.563,393.75,3185.0,-1146.25,80.56,-173.28,-494.0
348882.4776,21.655,-76.921,1008.452,1155.0,2852.5,-1163.75,89.68,-182.4,-472.72
348882.5276,27.755,-64.965,1012.417,953.75,2940.0,-1085.0,77.52,-174.8,-490.96
348882.5776,25.193,-73.932,1016.748,-1531.25,2922.5,-323.75,82.08,-176.32,-501.6
348882.6278,25.254,-82.716,1009.611,-140.0,3132.5,-603.75,71.44,-177.84,-490.96
348882.6776,22.692,-81.13,1015.467,-516.25,2975.0,-1023.75,79.04,-183.92,-483.36
348882.7277,24.095,-79.91,1014.308,428.75,3080.0,-962.5,79.04,-197.6,-486.4
348882.7776,25.254,-80.764,1012.295,-87.5,3053.75,-647.5,74.48,-190.0,-503.12
348882.8277,25.864,-68.686,1012.112,927.5,3185.0,-875.0,79.04,-177.84,-486.4
348882.8776,25.071,-72.712,1013.82,-253.75,2896.25,-840.0,72.96,-186.96,-486.4
348882.9276,27.206,-73.444,1012.417,288.75,3010.0,-735.0,71.44,-186.96,-477.28
348882.9776,22.082,-77.531,1013.698,-35.0,3272.5,-953.75,80.56,-177.84,-486.4
348883.0276,20.984,-78.69,1014.979,700.0,2695.0,-1758.75,82.08,-173.28,-484.88
348883.0776,23.302,-72.041,1012.295,183.75,2511.25,-1417.5,76.0,-179.36,-495.52
348883.1276,26.291,-73.566,1008.269,638.75,2756.25,-603.75,79.04,-182.4,-495.52
348883.1776,23.363,-69.54,1011.502,131.25,2948.75,-122.5,85.12,-174.8,-481.84
348883.2276,22.692,-68.808,1012.417,-140.0,2765.0,-612.5,83.6,-183.92,-490.96
348883.2776,26.901,-73.261,1017.236,-778.75,2861.25,-743.75,74.48,-173.28,-503.12
348883.3276,29.707,-77.104,1014.125,-96.25,3465.0,-1286.25,91.2,-179.36,-486.4
348883.3776,20.923,-77.409,1013.759,332.5,3403.75,-1198.75,82.08,-179.36,-497.04
348883.4276,22.875,-66.551,1014.857,1190.0,3263.75,-1032.5,79.04,-185.44,-489.44
348883.4776,21.899,-65.819,1015.528,-621.25,3080.0,-166.25,77.52,-186.96,-494.0
348883.5276,22.753,-76.982,1010.709,332.5,2782.5,-192.5,74.48,-183.92,-483.36
348883.5776,21.655,-73.627,1015.04,-507.5,2528.75,-691.25,88.16,-194.56,-489.44
348883.6276,27.633,-76.372,1014.186,-96.25,2668.75,-393.75,86.64,-182.4,-504.64
348883.6776,25.376,-76.921,1013.698,105.0,2677.5,-157.5,74.48,-188.48,-501.6
348883.7276,26.718,-77.531,1015.589,735.0,2931.25,-420.0,77.52,-179.36,-506.16
348883.7776,21.289,-69.906,1013.881,192.5,2782.5,-945.0,86.64,-193.04,-495.52
348883.8276,27.389,-70.699,1011.563,-280.0,3097.5,-280.0,79.04,-174.8,-495.52
348883.8776,30.378,-69.418,1012.661,-796.25,3360.0,-568.75,88.16,-174.8,-503.12
348883.9276,19.642,-74.969,1012.539,-376.25,2738.75,-2073.75,92.72,-182.4,-490.96
348883.9776,22.57,-75.396,1013.881,-367.5,2266.25,-2231.25,68.4,-171.76,-490.96
348884.0276,27.999,-76.86,1011.868,-367.5,3036.25,78.75,80.56,-182.4,-507.68
348884.0776,25.193,-77.409,1013.088,297.5,3036.25,183.75,80.56,-183.92,-481.84
348884.1276,24.827,-76.494,1011.502,612.5,2747.5,-411.25,83.6,-191.52,-484.88
348884.1776,29.524,-76.555,1015.589,192.5,2843.75,-1181.25,68.4,-188.48,-498.56
348884.2276,30.195,-73.688,1012.295,122.5,2948.75,-1452.5,60.8,-176.32,-486.4
348884.2776,27.633,-76.067,1009.916,577.5,3220.0,-1050.0,89.68,-170.24,-494.0
348884.3276,22.936,-66.978,1012.722,341.25,3263.75,-945.0,79.04,-176.32,-501.6
348884.3776,24.888,-72.773,1013.454,-980.0,3167.5,-743.75,66.88,-171.76,-481.84
348884.4276,25.315,-76.921,1010.587,-236.25,3088.75,-1102.5,82.08,-185.44,-484.88
348884.4776,26.352,-79.422,1011.868,122.5,3158.75,-1347.5,85.12,-186.96,-495.52
348884.5276,24.339,-78.934,1014.735,280.0,3220.0,-1207.5,77.52,-174.8,-494.0
348884.5776,23.363,-74.969,1012.539,367.5,2975.0,-717.5,79.04,-185.44,-487.92
348884.6276,21.411,-69.174,1009.916,437.5,3080.0,-595.0,74.48,-174.8,-490.96
348884.6776,23.363,-72.529,1017.236,-385.0,2992.5,-411.25,86.64,-185.44,-490.96
348884.7276,25.376,-76.128,1014.552,-490.0,2975.0,-262.5,80.56,-177.84,-494.0
348884.7776,24.583,-78.873,1014.308,-166.25,3325.0,-673.75,74.48,-180.88,-501.6
348884.8276,21.716,-75.884,1014.186,-131.25,2913.75,-971.25,92.72,-185.44,-498.56
348884.8776,23.058,-71.919,1010.282,218.75,2555.0,-603.75,86.64,-179.36,-487.92
348884.9276,29.89,-76.616,1010.404,-542.5,3115.0,376.25,69.92,-182.4,-495.52
348884.9776,26.901,-78.69,1014.552,-175.0,3220.0,-201.25,83.6,-176.32,-474.24
348885.0276,28.914,-82.96,1013.271,52.5,2940.0,-1198.75,89.68,-182.4,-492.48
348885.0776,25.376,-77.897,1011.563,735.0,3053.75,-1382.5,68.4,-173.28,-503.12
348885.1276,20.618,-73.932,1013.393,-341.25,3272.5,-831.25,76.0,-186.96,-498.56
348885.1776,22.692,-76.982,1014.491,385.0,3036.25,-866.25,80.56,-182.4,-489.44
348885.2276,25.803,-77.897,1011.136,332.5,2861.25,-752.5,89.68,-190.0,-486.4
348885.2776,22.753,-68.137,1014.491,183.75,3010.0,-490.0,62.32,-177.84,-480.32
348885.3276,20.069,-73.2,1017.297,-980.0,2887.5,-87.5,72.96,-182.4,-497.04
348885.3776,25.925,-80.642,1009.672,192.5,2843.75,-446.25,76.0,-180.88,-498.56
348885.4276,25.742,-80.581,1013.027,288.75,2957.5,-822.5,71.44,-190.0,-492.48
348885.4776,24.339,-77.226,1014.308,297.5,3150.0,-621.25,68.4,-182.4,-489.44
348885.5276,21.838,-75.274,1014.491,140.0,2966.25,-218.75,74.48,-186.96,-501.6
348885.5776,25.132,-71.431,1008.818,227.5,2896.25,-420.0,94.24,-177.84,-500.08
348885.6276,24.095,-76.982,1015.223,-525.0,2581.25,-910.0,79.04,-191.52,-486.4
348885.6776,26.535,-75.457,1013.698,-490.0,2607.5,-525.0,68.4,-176.32,-472.72
348885.7276,25.437,-77.958,1014.247,-210.0,3202.5,-805.0,76.0,-185.44,-494.0
348885.7776,22.082,-75.274,1012.234,-96.25,2511.25,-1190.0,76.0,-182.4,-487.92
348885.8276,23.973,-73.993,1011.807,227.5,2458.75,-1032.5,74.48,-194.56,-495.52
348885.8776,26.474,-76.738,1012.661,-227.5,2922.5,-280.0,80.56,-174.8,-489.44
348885.9276,24.644,-79.056,1012.173,-595.0,2642.5,-490.0,76.0,-170.24,-484.88
348885.9778,27.633,-81.191,1012.844,-332.5,2633.75,-883.75,80.56,-183.92,-480.32
348886.0276,28.975,-78.568,1013.21,113.75,3115.0,-1137.5,83.6,-186.96,-484.88
348886.0777,25.742,-79.178,1013.149,367.5,3272.5,-1006.25,66.88,-179.36,-503.12
348886.1276,21.96,-76.982,1012.478,26.25,2957.5,-595.0,77.52,-186.96,-495.52
348886.1777,26.535,-77.348,1013.942,218.75,2747.5,-542.5,80.56,-186.96,-492.48
348886.2276,23.546,-78.385,1010.709,717.5,3193.75,-787.5,80.56,-188.48,-484.88
348886.2776,24.095,-68.076,1012.295,-113.75,3115.0,-805.0,76.0,-180.88,-509.2
348886.3276,22.692,-73.993,1018.334,-1172.5,2756.25,-463.75,79.04,-183.92,-489.44
348886.3776,26.84,-81.374,1009.55,210.0,2808.75,-472.5,66.88,-176.32,-494.0
348886.4276,25.01,-83.814,1015.101,122.5,3115.0,-796.25,80.56,-174.8,-490.96
348886.4776,24.217,-80.52,1016.565,726.25,3176.25,-796.25,88.16,-180.88,-495.52
348886.5276,19.764,-77.287,1013.271,910.0,2817.5,-236.25,97.28,-165.68,-495.52
348886.5776,24.461,-73.078,1011.624,1225.0,3176.25,-183.75,86.64,-179.36,-487.92
348886.6276,24.827,-69.418,1013.759,26.25,2625.0,-306.25,80.56,-173.28,-501.6
348886.6776,26.596,-74.359,1013.21,-393.75,2896.25,-525.0,68.4,-171.76,-506.16
348886.7276,26.962,-77.958,1014.979,376.25,3272.5,-840.0,82.08,-183.92,-492.48
348886.7776,25.559,-74.481,1011.746,455.0,2931.25,-1671.25,79.04,-177.84,-490.96
348886.8276,24.949,-71.431,1014.857,420.0,2983.75,-1548.75,77.52,-177.84,-503.12
348886.8776,26.413,-71.553,1012.6,-288.75,3228.75,-350.0,80.56,-182.4,-494.0
348886.9276,25.742,-72.468,1011.319,218.75,2852.5,175.0,74.48,-179.36,-489.44
348886.9776,23.302,-74.725,1012.966,-201.25,2765.0,-560.0,74.48,-174.8,-471.2
348887.0276,25.376,-75.823,1013.027,376.25,2835.0,-1268.75,68.4,-183.92,-501.6
348887.0776,25.376,-71.431,1014.308,0.0,2800.0,-691.25,92.72,-173.28,-495.52
348887.1276,23.851,-75.396,1014.735,568.75,2878.75,-271.25,79.04,-190.0,-484.88
348887.1776,24.766,-72.407,1016.077,315.0,3377.5,-586.25,66.88,-161.12,-492.48
348887.2276,28.426,-77.958,1017.541,1041.25,3307.5,-437.5,79.04,-179.36,-487.92
348887.2776,22.143,-69.845,1013.271,498.75,3237.5,-218.75,86.64,-174.8,-484.88
348887.3276,22.936,-83.387,1010.709,603.75,2782.5,-43.75,79.04,-179.36,-487.92
348887.3776,31.476,-66.856,1008.513,297.5,3220.0,-717.5,69.92,-180.88,-507.68
348887.4276,30.744,-71.248,1014.125,682.5,3561.25,-656.25,77.52,-174.8,-494.0
348887.4776,23.912,-68.137,1016.565,-603.75,3928.75,-1102.5,71.44,-183.92,-480.32
348887.5276,21.35,-67.283,1011.624,542.5,3290.0,-1417.5,77.52,-185.44,-501.6
348887.5776,16.897,-65.209,1011.868,-411.25,3491.25,-1058.75,80.56,-183.92,-507.68
348887.6276,20.801,-60.634,1016.199,306.25,2397.5,-542.5,85.12,-180.88,-503.12
348887.6776,21.899,-63.013,1014.613,-1426.25,3167.5,-262.5,83.6,-188.48,-501.6
348887.7276,18.483,-70.577,1011.563,-813.75,2966.25,-883.75,76.0,-177.84,-494.0
348887.7776,18.361,-69.906,1010.77,-1041.25,2511.25,-1163.75,88.16,-177.84,-498.56
348887.8276,23.546,-74.664,1012.295,-1076.25,2423.75,-787.5,100.32,-191.52,-490.96
348887.8776,25.254,-82.472,1013.82,-1356.25,3080.0,-183.75,86.64,-183.92,-489.44
348887.9276,24.766,-82.96,1013.881,-612.5,3263.75,-385.0,63.84,-168.72,-490.96
348887.9776,20.618,-84.607,1014.552,43.75,3062.5,-1662.5,66.88,-186.96,-504.64
348888.0276,19.825,-76.982,1012.783,367.5,2607.5,-1977.5,91.2,-182.4,-490.96
348888.0776,22.936,-79.605,1014.186,595.0,2642.5,-735.0,74.48,-183.92,-484.88
348888.1276,25.132,-71.248,1007.72,463.75,2817.5,315.0,68.4,-179.36,-486.4
348888.1776,26.23,-69.601,1011.136,17.5,3342.5,332.5,88.16,-182.4,-486.4
348888.2276,16.47,-66.551,1016.504,-1242.5,2423.75,-455.0,92.72,-177.84,-497.04
348888.2776,22.692,-80.581,1011.807,-988.75,1933.75,-446.25,77.52,-173.28,-484.88
348888.3276,25.62,-81.801,1014.552,-507.5,2765.0,-673.75,76.0,-179.36,-501.6
348888.3776,24.949,-79.666,1014.674,848.75,2896.25,-533.75,85.12,-185.44,-489.44
348888.4276,25.681,-69.784,1014.247,708.75,2922.5,-577.5,86.64,-197.6,-483.36
348888.4776,25.437,-70.455,1010.892,-647.5,3123.75,-577.5,76.0,-176.32,-498.56
348888.5276,21.838,-73.444,1012.112,-1023.75,2940.0,-1225.0,76.0,-179.36,-509.2
348888.5776,29.646,-84.18,1012.295,-647.5,2861.25,-805.0,86.64,-176.32,-500.08
348888.6276,26.047,-81.008,1013.942,665.0,3535.0,-498.75,89.68,-180.88,-494.0
348888.6776,21.167,-79.605,1013.759,-122.5,3850.0,-1067.5,59.28,-179.36,-486.4
348888.7276,22.082,-82.045,1011.319,953.75,3263.75,-1496.25,89.68,-183.92,-501.6
348888.7776,18.422,-75.152,1013.027,1268.75,3001.25,-1102.5,69.92,-183.92,-478.8
348888.8276,22.997,-74.359,1009.916,262.5,2730.0,183.75,79.04,-185.44,-497.04
348888.8776,30.317,-85.583,1012.661,-411.25,3360.0,-525.0,66.88,-182.4,-498.56
348888.9276,16.958,-81.313,1012.722,1697.5,3771.25,-1435.0,92.72,-191.52,-490.96
348888.9776,16.531,-64.111,1013.21,1452.5,2257.5,-35.0,80.56,-179.36,-492.48
348889.0276,29.89,-62.037,1011.197,726.25,2231.25,577.5,71.44,-185.44,-498.56
348889.0776,33.367,-71.248,1010.404,-1513.75,2537.5,-901.25,86.64,-174.8,-489.44
348889.1276,31.11,-78.263,1015.589,-411.25,4033.75,-2572.5,85.12,-180.88,-500.08
348889.1776,20.13,-72.773,1016.077,96.25,3631.25,8.75,68.4,-179.36,-487.92
348889.2276,12.322,-75.579,1013.027,341.25,3771.25,-533.75,69.92,-176.32,-501.6
348889.2776,10.431,-75.396,1010.587,1198.75,2642.5,-1426.25,83.6,-182.4,-487.92
348889.3278,20.74,-60.512,1010.404,481.25,1933.75,-175.0,94.24,-191.52,-466.64
348889.3776,28.914,-68.625,1010.221,-761.25,2170.0,831.25,68.4,-183.92,-500.08
348889.4277,19.154,-75.213,1014.491,-201.25,2520.0,271.25,77.52,-193.04,-503.12
348889.4776,30.5,-73.017,1014.735,-735.0,2056.25,210.0,74.48,-193.04,-471.2
348889.5276,34.343,-77.775,1011.868,323.75,2887.5,-122.5,72.96,-177.84,-494.0
348889.5776,25.864,-73.749,1012.234,-306.25,3500.0,-1023.75,80.56,-176.32,-483.36
348889.6277,23.79,-73.81,1013.698,227.5,3053.75,-2301.25,83.6,-183.92,-497.04
348889.6776,23.058,-70.028,1012.051,-8.75,3010.0,-1531.25,79.04,-182.4,-487.92
348889.7276,20.801,-72.712,1013.21,-350.0,3351.25,-113.75,63.84,-179.36,-489.44
348889.7776,21.106,-74.786,1012.112,-595.0,3045.0,175.0,68.4,-182.4,-512.24
