TimeStamp,ax,ay,az,gx,gy,gz,mx,my,mz
348680.3276,33.123,-129.503,1005.036,-420.0,2721.25,-1050.0,86.64,-83.6,-475.76
348680.3777,38.003,-133.224,1004.914,-752.5,2555.0,-778.75,95.76,-85.12,-475.76
348680.4276,39.223,-138.897,1007.415,-140.0,2712.5,-752.5,88.16,-83.6,-472.72
348680.4777,39.955,-136.701,1004.914,857.5,3036.25,-980.0,100.32,-88.16,-474.24
348680.5276,35.99,-128.893,1004.731,656.25,2651.25,-1251.25,101.84,-91.2,-477.28
348680.5776,38.491,-132.004,1007.11,-560.0,2992.5,-840.0,86.64,-91.2,-469.68
348680.6276,42.029,-136.091,1005.707,-1190.0,3106.25,-673.75,82.08,-80.56,-486.4
348680.6776,43.066,-136.457,1004.975,735.0,2730.0,-630.0,92.72,-86.64,-475.76
348680.7276,35.014,-130.052,1010.404,-446.25,3473.75,-962.5,88.16,-94.24,-468.16
348680.7776,32.391,-144.692,1006.378,-813.75,2747.5,-1286.25,76.0,-82.08,-475.76
348680.8276,38.125,-142.069,1004.67,-166.25,3018.75,-1207.5,86.64,-86.64,-459.04
348680.8776,33.855,-140.544,1006.988,87.5,2975.0,-962.5,94.24,-92.72,-474.24
348680.9276,36.844,-141.398,1007.781,17.5,2231.25,-1015.0,80.56,-80.56,-472.72
348680.9776,47.092,-133.041,1003.999,1286.25,2843.75,-752.5,82.08,-88.16,-484.88
348681.0276,37.637,-135.115,1005.829,-1391.25,2940.0,-875.0,103.36,-82.08,-466.64
348681.0776,40.687,-142.679,1005.158,-1128.75,3018.75,-630.0,85.12,-89.68,-474.24
348681.1276,44.957,-144.326,1006.988,192.5,3351.25,-210.0,86.64,-88.16,-481.84
348681.1776,34.282,-140.483,1004.914,656.25,3062.5,-271.25,89.68,-86.64,-471.2
348681.2276,35.319,-133.59,1005.097,927.5,2660.0,-1041.25,91.2,-85.12,-465.12
348681.2776,46.482,-136.518,1003.267,-420.0,2336.25,-271.25,74.48,-88.16,-481.84
348681.3276,36.173,-144.814,1005.768,-498.75,3403.75,96.25,97.28,-76.0,-474.24
348681.3776,40.077,-134.566,1004.609,927.5,3036.25,-376.25,92.72,-83.6,-469.68
348681.4276,34.404,-140.178,1004.792,-1251.25,2896.25,-883.75,85.12,-89.68,-475.76
348681.4776,38.43,-142.008,1002.718,8.75,2712.5,-1400.0,89.68,-83.6,-490.96
348681.5276,39.711,-148.901,1007.476,157.5,3255.0,-1146.25,94.24,-86.64,-465.12
348681.5776,36.844,-136.274,1007.049,997.5,3202.5,-1076.25,76.0,-83.6,-468.16
348681.6276,35.014,-137.799,1004.304,796.25,3071.25,-498.75,100.32,-76.0,-492.48
348681.6776,35.075,-130.784,1006.5,717.5,3010.0,-962.5,100.32,-86.64,-460.56
348681.7276,42.578,-131.882,1007.293,-218.75,3115.0,-542.5,92.72,-76.0,-465.12
348681.7776,39.528,-139.08,1005.097,-70.0,3911.25,-8.75,79.04,-77.52,-483.36
348681.8276,27.267,-135.603,1006.927,-603.75,2800.0,-1365.0,89.68,-77.52,-481.84
348681.8776,39.101,-138.165,1006.378,-708.75,2082.5,-1260.0,94.24,-95.76,-472.72
348681.9276,39.04,-133.956,1005.158,17.5,3115.0,-525.0,85.12,-80.56,-469.68
348681.9776,36.539,-141.093,1006.561,-533.75,3036.25,-910.0,76.0,-85.12,-469.68
348682.0276,41.114,-141.886,1004.487,166.25,2791.25,-1426.25,83.6,-82.08,-466.64
348682.0776,37.576,-140.849,1005.768,1583.75,3097.5,-201.25,91.2,-91.2,-474.24
348682.1276,34.16,-130.479,1006.256,1120.0,3351.25,-586.25,86.64,-82.08,-478.8
348682.1776,37.881,-142.862,1003.206,-1242.5,2467.5,-507.5,85.12,-82.08,-481.84
348682.2276,41.236,-142.069,1004.548,-498.75,3220.0,-481.25,95.76,-86.64,-471.2
348682.2776,31.72,-143.96,1006.5,87.5,2922.5,-551.25,77.52,-80.56,-468.16
348682.3276,34.526,-139.873,1007.598,848.75,2502.5,-656.25,98.8,-76.0,-489.44
348682.3776,38.186,-138.043,1007.293,262.5,2782.5,35.0,95.76,-85.12,-478.8
348682.4276,36.295,-134.139,1004.243,0.0,2616.25,-271.25,86.64,-89.68,-466.64
348682.4776,38.613,-135.42,1004.731,-463.75,2476.25,-201.25,95.76,-88.16,-489.44
348682.5276,41.053,-141.337,1007.415,43.75,2975.0,-525.0,88.16,-95.76,-468.16
348682.5776,38.125,-139.507,1008.879,122.5,3071.25,-743.75,91.2,-82.08,-475.76
348682.6276,38.796,-135.542,1001.01,122.5,2231.25,-1286.25,88.16,-80.56,-472.72
348682.6776,40.443,-139.08,1002.718,-1067.5,2975.0,-262.5,86.64,-82.08,-481.84
348682.7276,38.186,-138.897,1004.914,-568.75,2852.5,43.75,97.28,-77.52,-475.76
348682.7776,41.053,-143.167,1007.598,-892.5,2843.75,-358.75,88.16,-89.68,-481.84
348682.8276,43.005,-142.74,1006.378,-420.0,2616.25,-595.0,89.68,-86.64,-478.8
348682.8776,42.151,-142.13,1006.561,1137.5,2686.25,-621.25,101.84,-77.52,-468.16
348682.9276,38.369,-129.137,1004.121,-910.0,3421.25,-770.0,103.36,-88.16,-471.2
348682.9776,35.99,-141.825,1003.267,-1286.25,3097.5,-656.25,85.12,-94.24,-475.76
348683.0276,40.138,-149.694,1006.439,-1225.0,3123.75,-420.0,77.52,-86.64,-466.64
348683.0776,38.552,-148.291,1006.744,-166.25,3237.5,-376.25,88.16,-91.2,-452.96
348683.1276,35.258,-142.618,1006.561,-603.75,2843.75,-560.0,88.16,-85.12,-475.76
348683.1776,41.053,-146.156,1006.134,280.0,2808.75,-35.0,86.64,-77.52,-494.0
348683.2276,40.138,-142.679,1004.67,271.25,3150.0,175.0,94.24,-80.56,-477.28
348683.2776,35.868,-147.498,1008.147,-507.5,2432.5,-708.75,97.28,-89.68,-478.8
348683.3276,43.371,-147.193,1005.036,175.0,2625.0,-656.25,86.64,-85.12,-472.72
348683.3776,40.016,-142.008,1006.195,350.0,3150.0,-253.75,86.64,-80.56,-481.84
348683.4276,37.088,-142.984,1002.474,-17.5,2765.0,-1216.25,92.72,-86.64,-465.12
348683.4776,39.65,-144.692,1001.376,-140.0,2948.75,-945.0,92.72,-72.96,-475.76
348683.5276,37.332,-140.3,1006.012,122.5,2940.0,-35.0,100.32,-80.56,-480.32
348683.5776,36.966,-143.472,1004.609,35.0,2616.25,-490.0,85.12,-97.28,-459.04
348683.6278,39.528,-140.788,1005.097,-735.0,2773.75,-778.75,79.04,-80.56,-474.24
348683.6776,41.907,-151.341,1006.561,-393.75,3106.25,-962.5,85.12,-79.04,-475.76
348683.7277,38.064,-142.496,1003.389,1058.75,2677.5,-796.25,89.68,-82.08,-483.36
348683.7776,38.735,-138.47,1003.694,87.5,3508.75,-1041.25,88.16,-79.04,-460.56
348683.8276,35.38,-145.119,1004.06,-787.5,2878.75,-507.5,82.08,-76.0,-469.68
348683.8776,36.905,-147.376,1002.657,-1050.0,3220.0,-665.0,88.16,-83.6,-474.24
348683.9277,39.772,-150.731,1004.243,-61.25,2931.25,-682.5,100.32,-82.08,-472.72
348683.9776,34.892,-143.35,1003.206,-271.25,3123.75,-988.75,89.68,-85.12,-471.2
348684.0276,42.029,-145.912,1000.034,367.5,2686.25,-778.75,91.2,-72.96,-459.04
348684.0776,38.857,-140.483,1004.182,-490.0,3508.75,-586.25,97.28,-79.04,-469.68
348684.1276,36.539,-143.716,1004.304,-332.5,2782.5,-507.5,92.72,-77.52,-478.8
348684.1776,40.016,-150.06,1005.402,-218.75,2677.5,-717.5,89.68,-95.76,-490.96
348684.2276,38.918,-144.448,1002.535,472.5,3228.75,-1015.0,85.12,-71.44,-477.28
348684.2776,35.807,-146.4,1002.718,-288.75,2861.25,-1400.0,91.2,-92.72,-468.16
348684.3276,39.223,-141.886,1003.999,-148.75,2747.5,-805.0,74.48,-72.96,-475.76
348684.3776,38.735,-147.864,1006.927,-787.5,2896.25,253.75,94.24,-91.2,-481.84
348684.4276,40.565,-151.524,1003.023,-201.25,3115.0,35.0,100.32,-82.08,-474.24
348684.4776,39.894,-147.254,1006.927,-498.75,2756.25,-166.25,98.8,-79.04,-468.16
348684.5276,38.796,-152.744,1004.06,-78.75,2730.0,-761.25,82.08,-80.56,-462.08
348684.5776,39.406,-148.352,1003.572,43.75,3018.75,-1041.25,86.64,-83.6,-478.8
348684.6276,45.75,-139.019,1002.23,717.5,2975.0,-595.0,91.2,-83.6,-462.08
348684.6776,36.661,-136.64,1005.036,-875.0,3281.25,-560.0,89.68,-80.56,-471.2
348684.7276,36.966,-153.415,1002.657,-385.0,2905.0,-472.5,88.16,-79.04,-484.88
348684.7776,40.199,-156.465,1003.023,-621.25,3045.0,-630.0,83.6,-86.64,-469.68
348684.8276,38.003,-153.903,1003.633,428.75,3246.25,-822.5,77.52,-85.12,-469.68
348684.8776,35.441,-148.901,1004.731,630.0,2415.0,-787.5,92.72,-80.56,-486.4
348684.9276,41.907,-148.657,1005.463,936.25,3106.25,-411.25,83.6,-80.56,-478.8
348684.9776,36.478,-145.058,1001.071,262.5,2738.75,-560.0,97.28,-77.52,-472.72
348685.0276,41.48,-148.901,1004.182,148.75,2940.0,-376.25,68.4,-89.68,-478.8
348685.0776,40.626,-143.289,1002.352,498.75,3753.75,-656.25,95.76,-85.12,-477.28
348685.1276,33.001,-143.106,1003.145,-280.0,3071.25,-1671.25,104.88,-65.36,-474.24
348685.1776,38.613,-144.021,1004.121,-297.5,2826.25,-1478.75,86.64,-77.52,-478.8
348685.2276,36.539,-143.777,1005.524,-420.0,2948.75,-131.25,94.24,-74.48,-471.2
348685.2776,35.624,-146.522,1004.67,-892.5,2747.5,192.5,95.76,-88.16,-475.76
348685.3276,41.419,-150.67,1002.901,61.25,2730.0,-87.5,85.12,-88.16,-459.04
348685.3776,39.528,-152.927,1005.829,-787.5,2905.0,-761.25,89.68,-76.0,-494.0
348685.4276,39.101,-152.927,1005.463,-52.5,3001.25,-1505.0,91.2,-82.08,-480.32
348685.4776,39.345,-151.768,1004.426,953.75,2791.25,-1111.25,91.2,-88.16,-468.16
348685.5276,40.26,-143.35,1004.182,463.75,3570.0,-1015.0,85.12,-83.6,-474.24
348685.5776,36.112,-155.001,1004.975,-1680.0,2782.5,0.0,92.72,-74.48,-487.92
348685.6276,40.443,-157.685,1004.304,-420.0,3036.25,-481.25,91.2,-76.0,-457.52
348685.6776,36.905,-158.844,1003.633,70.0,2966.25,-796.25,71.44,-83.6,-460.56
348685.7276,39.162,-154.94,1004.609,218.75,2905.0,-1076.25,94.24,-74.48,-471.2
348685.7776,38.491,-149.572,1005.341,472.5,2651.25,-831.25,92.72,-71.44,-471.2
348685.8276,36.234,-146.278,1003.023,148.75,3307.5,-778.75,89.68,-80.56,-469.68
348685.8776,37.698,-150.67,1005.646,-1190.0,3202.5,-1251.25,89.68,-77.52,-468.16
348685.9276,41.968,-153.171,1001.681,-245.0,3482.5,-1715.0,101.84,-86.64,-471.2
348685.9776,34.892,-151.524,1005.951,122.5,3368.75,-1636.25,88.16,-85.12,-448.4
348686.0276,35.685,-150.06,1003.938,-113.75,3080.0,-1111.25,88.16,-83.6,-475.76
348686.0776,36.661,-151.219,1002.535,-446.25,2712.5,-262.5,100.32,-80.56,-462.08
348686.1276,34.892,-151.402,1003.267,113.75,2056.25,-280.0,95.76,-85.12,-466.64
348686.1776,35.868,-150.365,1004.914,-708.75,1566.25,481.25,77.52,-80.56,-478.8
348686.2276,45.201,-155.977,1004.548,-87.5,1968.75,271.25,91.2,-92.72,-480.32
348686.2776,46.482,-155.367,1001.803,-113.75,2905.0,140.0,85.12,-76.0,-466.64
348686.3276,39.406,-157.502,1008.269,-148.75,3508.75,-542.5,85.12,-71.44,-446.88
348686.3776,39.04,-153.659,1003.206,-1785.0,3062.5,-1496.25,94.24,-76.0,-466.64
348686.4276,56.852,-149.267,999.241,1050.0,4427.5,-586.25,97.28,-77.52,-468.16
348686.4776,26.23,-145.851,1004.914,-2108.75,5197.5,-96.25,85.12,-83.6,-471.2
348686.5276,23.668,-157.99,1001.01,-516.25,2686.25,-2003.75,91.2,-72.96,-472.72
348686.5776,43.859,-159.271,1004.731,-1058.75,3080.0,-1216.25,89.68,-89.68,-472.72
348686.6276,37.21,-163.785,1004.304,560.0,3106.25,-87.5,103.36,-79.04,-463.6
348686.6776,30.622,-154.452,1003.389,-43.75,2257.5,-787.5,89.68,-76.0,-472.72
348686.7276,43.31,-148.291,1001.071,586.25,2625.0,-568.75,83.6,-77.52,-484.88
348686.7776,35.38,-147.864,1003.145,-420.0,3053.75,-490.0,95.76,-76.0,-480.32
348686.8276,40.626,-153.537,1005.28,-498.75,3018.75,-463.75,83.6,-76.0,-472.72
348686.8776,39.833,-154.94,1002.901,-323.75,3500.0,-761.25,86.64,-77.52,-472.72
348686.9276,33.977,-156.038,1003.267,-140.0,3115.0,-1365.0,97.28,-82.08,-463.6
348686.9776,30.927,-151.89,1002.169,192.5,3027.5,-813.75,95.76,-83.6,-471.2
348687.0276,33.733,-155.733,1001.254,-726.25,2397.5,-542.5,83.6,-74.48,-477.28
348687.0777,38.735,-159.82,1001.803,-61.25,2581.25,-288.75,92.72,-71.44,-466.64
348687.1276,32.269,-154.086,1005.585,-253.75,2257.5,-358.75,98.8,-77.52,-477.28
348687.1777,40.687,-154.574,1001.315,-26.25,1758.75,-1785.0,85.12,-72.96,-466.64
348687.2276,46.177,-161.65,1003.145,-997.5,2703.75,-1076.25,92.72,-83.6,-472.72
348687.2776,41.968,-161.528,1004.426,385.0,3001.25,-866.25,89.68,-83.6,-468.16
348687.3276,42.883,-158.539,1003.633,647.5,2765.0,-490.0,86.64,-85.12,-465.12
348687.3776,52.399,-149.084,1000.583,988.75,4436.25,691.25,88.16,-77.52,-468.16
348687.4276,32.391,-156.709,1003.389,-883.75,3788.75,1365.0,97.28,-82.08,-472.72
348687.4776,33.428,-158.234,1001.681,-1120.0,2887.5,-962.5,82.08,-79.04,-457.52
348687.5276,37.759,-164.578,1001.071,35.0,2616.25,-1373.75,88.16,-83.6,-483.36
348687.5776,35.441,-159.454,1003.633,490.0,3167.5,-778.75,98.8,-74.48,-474.24
348687.6276,32.574,-155.428,1006.134,481.25,2222.5,-542.5,106.4,-80.56,-474.24
348687.6776,39.65,-157.38,1003.694,-560.0,1916.25,-2222.5,85.12,-79.04,-471.2
348687.7276,44.469,-156.465,1001.437,-175.0,2021.25,-1680.0,80.56,-82.08,-477.28
348687.7776,49.227,-158.295,1000.034,-831.25,3360.0,-787.5,85.12,-85.12,-478.8
348687.8276,35.807,-156.709,1001.925,236.25,3920.0,131.25,94.24,-88.16,-466.64
348687.8776,30.012,-160.979,1003.999,-113.75,2948.75,-980.0,97.28,-77.52,-472.72
348687.9276,44.225,-157.441,1002.596,350.0,2476.25,-752.5,88.16,-71.44,-481.84
348687.9776,39.894,-158.905,1002.169,87.5,2983.75,-148.75,98.8,-79.04,-480.32
348688.0276,38.613,-157.868,1001.315,-17.5,2887.5,-533.75,88.16,-74.48,-465.12
348688.0776,38.918,-158.173,1002.413,52.5,2817.5,-1050.0,89.68,-83.6,-483.36
348688.1276,41.358,-155.916,1004.06,-376.25,3106.25,-787.5,91.2,-76.0,-477.28
348688.1776,41.724,-159.515,1002.047,271.25,2765.0,-656.25,83.6,-80.56,-454.48
348688.2276,39.467,-158.966,1002.962,210.0,3141.25,-341.25,88.16,-76.0,-480.32
348688.2776,43.676,-145.973,1004.548,1067.5,2572.5,-918.75,88.16,-77.52,-469.68
348688.3276,46.97,-152.866,1001.315,-1513.75,2528.75,-682.5,88.16,-71.44,-465.12
348688.3776,53.375,-161.345,999.18,-1163.75,3727.5,-647.5,82.08,-71.44,-463.6
348688.4276,42.822,-166.835,1003.816,402.5,4856.25,-1207.5,82.08,-79.04,-474.24
348688.4776,34.282,-159.393,1003.023,551.25,4462.5,-1163.75,92.72,-69.92,-477.28
348688.5276,29.951,-157.624,1000.339,1513.75,3290.0,-796.25,101.84,-82.08,-471.2
348688.5776,36.844,-141.825,1002.474,621.25,3141.25,-1540.0,92.72,-82.08,-456.0
348688.6276,36.783,-145.546,1005.402,-1277.5,3237.5,-1802.5,92.72,-80.56,-480.32
348688.6776,38.674,-159.271,1003.511,-1172.5,2983.75,-1277.5,95.76,-89.68,-468.16
348688.7276,39.406,-162.687,1004.121,175.0,3307.5,-61.25,92.72,-88.16,-472.72
348688.7776,38.857,-160.247,1003.572,210.0,2581.25,-796.25,85.12,-80.56,-457.52
348688.8276,42.883,-161.467,999.668,857.5,3123.75,-1671.25,88.16,-74.48,-474.24
348688.8776,35.319,-152.134,1003.084,472.5,3386.25,-1662.5,98.8,-89.68,-468.16
348688.9276,33.062,-153.11,1000.522,350.0,3027.5,-1303.75,91.2,-80.56,-452.96
348688.9776,33.55,-154.757,1002.169,-113.75,2835.0,-402.5,85.12,-72.96,-472.72
348689.0276,35.136,-155.001,1005.158,-157.5,2493.75,-770.0,88.16,-77.52,-471.2
348689.0776,46.299,-156.16,999.546,612.5,2747.5,-752.5,85.12,-74.48,-462.08
348689.1276,38.552,-143.899,1000.766,892.5,2913.75,-708.75,89.68,-76.0,-472.72
348689.1776,41.297,-141.642,1001.925,-700.0,3263.75,-761.25,89.68,-77.52,-471.2
348689.2276,41.053,-148.23,1003.389,-2642.5,2870.0,-560.0,95.76,-82.08,-466.64
348689.2776,43.493,-165.493,1006.073,-1715.0,3298.75,-1592.5,91.2,-82.08,-478.8
348689.3276,40.931,-173.057,1005.097,-1085.0,3517.5,-1758.75,85.12,-85.12,-472.72
348689.3776,34.404,-169.153,1003.877,673.75,3683.75,-1207.5,103.36,-74.48,-471.2
348689.4276,33.245,-160.735,1004.243,927.5,2537.5,-822.5,92.72,-83.6,-475.76
348689.4776,38.43,-154.757,1002.474,306.25,2537.5,-770.0,89.68,-77.52,-480.32
348689.5276,42.883,-154.635,1001.376,175.0,2940.0,-218.75,65.36,-68.4,-472.72
348689.5776,42.273,-156.648,1001.925,-175.0,3456.25,-402.5,91.2,-91.2,-451.44
348689.6276,39.772,-151.646,1001.193,-455.0,3718.75,-1198.75,91.2,-80.56,-472.72
348689.6776,34.099,-157.502,1002.291,-498.75,3246.25,-1881.25,79.04,-74.48,-475.76
348689.7276,35.258,-157.99,1003.511,-542.5,3307.5,-1181.25,76.0,-69.92,-474.24
348689.7776,32.147,-160.125,1005.768,-735.0,2966.25,-673.75,97.28,-89.68,-460.56
348689.8276,34.404,-159.271,1002.84,-122.5,2476.25,-560.0,79.04,-82.08,-471.2
348689.8776,34.892,-158.6,1001.62,-236.25,2887.5,-332.5,109.44,-85.12,-466.64
348689.9276,38.247,-162.077,1002.169,-752.5,2458.75,-1058.75,94.24,-85.12,-466.64
348689.9776,42.151,-166.957,1003.206,-717.5,2712.5,-1312.5,100.32,-98.8,-475.76
348690.0276,42.029,-164.761,1002.291,420.0,3150.0,-910.0,76.0,-71.44,-465.12
348690.0776,39.65,-161.528,1002.535,770.0,4086.25,-1015.0,76.0,-89.68,-457.52
348690.1276,33.001,-160.125,1004.365,-341.25,2668.75,-945.0,100.32,-85.12,-468.16
348690.1776,39.711,-168.36,1002.23,-490.0,2905.0,-1111.25,85.12,-88.16,-468.16
348690.2276,33.794,-164.09,1001.864,70.0,2966.25,-525.0,82.08,-71.44,-463.6
348690.2776,33.55,-163.968,1005.036,402.5,2975.0,-656.25,106.4,-82.08,-471.2
348690.3276,36.6,-156.953,1001.864,586.25,2213.75,-726.25,83.6,-77.52,-471.2
348690.3776,39.101,-160.308,1001.071,-385.0,2983.75,-288.75,91.2,-72.96,-471.2
348690.4278,41.602,-158.966,1001.742,-883.75,3027.5,-315.0,89.68,-76.0,-475.76
348690.4776,39.162,-165.981,1002.718,-376.25,3325.0,-446.25,89.68,-85.12,-463.6
348690.5277,34.16,-165.249,1002.108,-271.25,2870.0,-1172.5,80.56,-77.52,-474.24
348690.5776,35.868,-162.87,998.57,-621.25,2677.5,-1855.0,88.16,-82.08,-477.28
348690.6276,37.088,-161.589,1000.705,-358.75,2765.0,-743.75,92.72,-79.04,-471.2
348690.6776,35.624,-165.371,1003.206,-656.25,2905.0,-26.25,79.04,-65.36,-483.36
348690.7276,38.125,-163.358,1000.522,-183.75,2493.75,-131.25,82.08,-66.88,-481.84
348690.7776,39.223,-167.14,998.021,-8.75,3517.5,-262.5,103.36,-82.08,-472.72
348690.8276,29.951,-162.26,1004.182,-70.0,2616.25,-1461.25,92.72,-85.12,-460.56
348690.8776,44.225,-166.225,1001.742,-875.0,3263.75,-778.75,85.12,-68.4,-477.28
348690.9276,32.513,-170.007,1004.487,953.75,3316.25,-323.75,83.6,-77.52,-469.68
348690.9776,37.027,-164.395,1002.23,980.0,2170.0,-87.5,103.36,-82.08,-462.08
348691.0276,41.541,-152.988,1002.291,-726.25,3325.0,498.75,89.68,-68.4,-475.76
348691.0776,37.515,-166.408,997.655,-665.0,4033.75,1391.25,85.12,-69.92,-465.12
348691.1276,32.086,-168.848,1000.156,-980.0,3010.0,-717.5,94.24,-72.96,-471.2
348691.1776,38.003,-172.508,1001.803,-376.25,2546.25,-1260.0,91.2,-89.68,-462.08
348691.2276,35.319,-166.347,1001.315,306.25,2633.75,-1688.75,80.56,-82.08,-484.88
348691.2776,40.016,-162.687,999.058,1032.5,2668.75,-1198.75,91.2,-79.04,-484.88
348691.3276,39.65,-161.345,1002.047,210.0,2940.0,-971.25,82.08,-74.48,-463.6
348691.3776,38.125,-166.835,1001.437,-61.25,2458.75,-743.75,91.2,-77.52,-472.72
348691.4276,41.419,-165.798,1002.413,-498.75,3430.0,26.25,83.6,-71.44,-475.76
348691.4776,36.112,-167.262,996.74,665.0,3867.5,262.5,92.72,-79.04,-471.2
348691.5276,34.282,-161.833,1000.4,78.75,3185.0,-306.25,80.56,-77.52,-466.64
348691.5776,30.927,-166.713,1004.243,105.0,2537.5,-700.0,83.6,-68.4,-481.84
348691.6276,35.929,-164.273,1002.169,568.75,2292.5,-1321.25,85.12,-76.0,-474.24
348691.6776,42.7,-161.711,1001.376,805.0,2581.25,-717.5,85.12,-74.48,-451.44
348691.7276,40.443,-156.282,999.18,402.5,2782.5,-875.0,92.72,-71.44,-478.8
348691.7776,37.515,-160.308,1002.657,-621.25,3106.25,-840.0,74.48,-88.16,-466.64
348691.8276,33.611,-164.517,1000.095,-560.0,3062.5,-1190.0,97.28,-79.04,-472.72
348691.8776,44.408,-152.073,999.119,-148.75,2073.75,-761.25,85.12,-82.08,-462.08
348691.9276,40.626,-159.698,1002.901,-2590.0,3955.0,-297.5,92.72,-71.44,-472.72
348691.9776,37.82,-180.133,1000.522,-1715.0,2511.25,-472.5,100.32,-76.0,-475.76
348692.0276,42.456,-173.606,1000.583,656.25,2747.5,-962.5,98.8,-76.0,-456.0
348692.0776,42.151,-171.41,1002.779,-122.5,3193.75,-455.0,80.56,-76.0,-469.68
348692.1276,45.933,-161.101,995.947,1435.0,4733.75,796.25,80.56,-72.96,-475.76
348692.1776,25.376,-162.016,1001.193,280.0,4121.25,376.25,95.76,-77.52,-462.08
348692.2276,36.722,-157.258,1002.108,-551.25,1986.25,-1916.25,89.68,-85.12,-480.32
348692.2776,41.907,-165.554,1006.561,-936.25,2686.25,-743.75,88.16,-79.04,-466.64
348692.3276,41.663,-170.8,1002.23,577.5,3832.5,-621.25,101.84,-79.04,-462.08
348692.3776,37.759,-162.321,997.594,848.75,3596.25,-2301.25,104.88,-65.36,-459.04
348692.4276,34.953,-158.112,997.228,420.0,3605.0,-2126.25,92.72,-60.8,-471.2
348692.4776,25.986,-161.528,1002.352,-778.75,2782.5,-1041.25,79.04,-79.04,-471.2
348692.5276,26.779,-167.506,1003.206,-1032.5,1741.25,-1260.0,103.36,-71.44,-468.16
348692.5776,41.846,-176.168,1004.182,323.75,1977.5,-840.0,80.56,-72.96,-454.48
348692.6276,40.87,-169.275,1002.901,-166.25,2843.75,-411.25,80.56,-69.92,-477.28
348692.6776,36.295,-168.238,1003.45,568.75,2677.5,-1015.0,100.32,-74.48,-469.68
348692.7276,39.406,-165.859,1001.132,1050.0,2415.0,-1251.25,85.12,-65.36,-472.72
348692.7776,45.384,-154.513,1000.522,665.0,2870.0,-1268.75,85.12,-69.92,-481.84
348692.8276,43.615,-164.151,1001.254,-1356.25,3578.75,-17.5,88.16,-74.48,-474.24
348692.8776,38.796,-166.286,1000.034,-332.5,2966.25,-1006.25,88.16,-74.48,-459.04
348692.9276,44.103,-173.972,1000.034,-262.5,3053.75,-1058.75,80.56,-82.08,-472.72
348692.9776,40.687,-169.336,1003.816,341.25,3263.75,-1391.25,83.6,-72.96,-471.2
348693.0276,40.321,-162.199,998.204,665.0,2931.25,-1338.75,85.12,-74.48,-478.8
348693.0776,35.197,-162.26,1001.132,551.25,4602.5,-656.25,85.12,-60.8,-457.52
348693.1276,28.365,-161.65,1000.888,-402.5,2345.0,-1408.75,88.16,-69.92,-480.32
348693.1776,41.663,-167.14,1000.827,-428.75,2598.75,-1058.75,98.8,-76.0,-469.68
348693.2276,38.735,-165.249,1000.888,-157.5,3290.0,-455.0,95.76,-91.2,-468.16
348693.2776,36.905,-164.334,1002.352,17.5,3263.75,-1137.5,85.12,-79.04,-477.28
348693.3276,37.088,-165.92,998.814,-288.75,2931.25,-813.75,86.64,-74.48,-474.24
348693.3776,34.038,-169.092,1000.278,-105.0,3307.5,-875.0,91.2,-82.08,-463.6
348693.4276,40.992,-169.214,1001.01,-813.75,2940.0,-603.75,89.68,-76.0,-469.68
348693.4776,40.077,-165.554,999.241,-638.75,3561.25,-157.5,88.16,-77.52,-466.64
348693.5276,31.11,-166.469,1001.559,-813.75,3307.5,-551.25,83.6,-83.6,-474.24
348693.5776,45.323,-168.787,999.668,-805.0,3841.25,-752.5,91.2,-77.52,-466.64
348693.6276,31.293,-168.97,1003.938,-26.25,3876.25,-805.0,95.76,-80.56,-456.0
348693.6776,40.931,-159.088,1001.986,-778.75,2537.5,-2642.5,98.8,-68.4,-481.84
348693.7276,36.478,-171.349,997.838,-1120.0,3640.0,-700.0,100.32,-63.84,-469.68
348693.7776,30.866,-171.593,1000.278,-1907.5,3290.0,-1120.0,97.28,-63.84,-466.64
348693.8276,41.48,-179.035,1000.339,-603.75,3456.25,-901.25,91.2,-76.0,-459.04
348693.8777,38.125,-177.876,999.79,-463.75,3893.75,-1207.5,92.72,-66.88,-471.2
348693.9276,32.574,-175.009,1001.315,148.75,2677.5,-1181.25,77.52,-72.96,-481.84
348693.9777,35.38,-171.654,1000.888,122.5,3316.25,-376.25,100.32,-71.44,-465.12
348694.0276,33.977,-172.691,1002.291,472.5,2738.75,-201.25,89.68,-76.0,-462.08
348694.0776,36.051,-174.216,1001.132,122.5,2948.75,-883.75,79.04,-72.96,-469.68
348694.1276,37.698,-169.397,999.851,883.75,3333.75,-875.0,98.8,-74.48,-460.56
348694.1776,29.402,-170.922,1000.278,183.75,3430.0,-1198.75,80.56,-83.6,-469.68
348694.2276,31.11,-173.911,1002.596,-105.0,2738.75,-988.75,86.64,-69.92,-460.56
348694.2776,36.112,-171.227,998.204,113.75,2800.0,-507.5,91.2,-66.88,-466.64
348694.3276,30.622,-170.068,1000.339,175.0,2808.75,-183.75,97.28,-85.12,-465.12
348694.3776,35.807,-167.079,1002.962,280.0,2668.75,-472.5,82.08,-66.88,-465.12
348694.4276,37.698,-169.031,999.119,-630.0,3001.25,-875.0,89.68,-85.12,-478.8
348694.4776,37.515,-177.632,1001.315,-192.5,2896.25,-1426.25,80.56,-71.44,-463.6
348694.5276,35.197,-172.996,1000.217,-411.25,3351.25,-770.0,92.72,-82.08,-454.48
348694.5776,35.075,-170.861,999.485,840.0,3211.25,-603.75,86.64,-83.6,-451.44
348694.6276,31.659,-161.772,1001.193,-656.25,3263.75,-262.5,92.72,-80.56,-466.64
348694.6776,32.391,-177.449,1002.169,-673.75,2992.5,-157.5,101.84,-76.0,-465.12
348694.7276,34.953,-178.73,1002.962,17.5,2345.0,-603.75,83.6,-69.92,-466.64
348694.7776,36.783,-182.085,1003.877,315.0,2878.75,-542.5,80.56,-68.4,-472.72
348694.8276,33.611,-168.787,998.57,332.5,3045.0,-271.25,86.64,-80.56,-469.68
348694.8776,33.489,-173.545,998.631,428.75,2362.5,-568.75,103.36,-71.44,-466.64
348694.9276,39.833,-166.591,1000.705,402.5,2738.75,-288.75,89.68,-71.44,-478.8
348694.9776,35.624,-165.554,1000.888,-778.75,3185.0,-236.25,88.16,-82.08,-468.16
348695.0276,35.258,-174.033,1002.291,52.5,2791.25,-1356.25,94.24,-77.52,-472.72
348695.0776,33.855,-173.362,1000.034,-210.0,2826.25,-1373.75,88.16,-71.44,-462.08
348695.1276,33.245,-169.031,1000.705,1023.75,2642.5,-1172.5,91.2,-85.12,-472.72
348695.1776,39.65,-169.153,996.191,-813.75,2887.5,402.5,88.16,-68.4,-471.2
348695.2276,39.467,-173.545,999.485,52.5,3062.5,1015.0,98.8,-80.56,-484.88
348695.2776,39.589,-172.752,998.936,-105.0,2537.5,-210.0,72.96,-76.0,-454.48
348695.3276,40.443,-173.179,1000.522,148.75,3333.75,-813.75,86.64,-69.92,-469.68
348695.3776,36.112,-169.092,1001.986,-1242.5,2966.25,-1015.0,101.84,-74.48,-465.12
348695.4276,32.208,-185.501,1003.267,-385.0,4410.0,577.5,94.24,-62.32,-463.6
348695.4776,23.851,-181.78,1001.62,1391.25,1881.25,-1907.5,88.16,-68.4,-474.24
348695.5276,42.7,-167.079,996.923,1417.5,3132.5,271.25,86.64,-71.44,-468.16
348695.5776,30.439,-159.942,1003.938,-726.25,1916.25,-1041.25,98.8,-71.44,-454.48
348695.6276,50.508,-181.902,998.509,-498.75,3290.0,-673.75,76.0,-74.48,-462.08
348695.6776,25.681,-176.656,1002.962,1172.5,2388.75,-3648.75,91.2,-62.32,-477.28
348695.7276,45.323,-174.033,1004.609,1741.25,2546.25,-2616.25,94.24,-83.6,-478.8
348695.7776,34.038,-167.079,999.607,1391.25,2581.25,-1785.0,82.08,-71.44,-466.64
348695.8276,37.271,-166.713,999.668,1478.75,2852.5,157.5,92.72,-79.04,-469.68
348695.8776,33.306,-155.794,997.594,507.5,2476.25,621.25,88.16,-76.0,-478.8
348695.9276,45.933,-162.565,997.594,-1093.75,2791.25,1811.25,83.6,-72.96,-466.64
348695.9776,41.602,-169.397,998.814,-612.5,3386.25,1531.25,80.56,-79.04,-466.64
348696.0276,47.214,-176.473,1000.095,-96.25,3657.5,-201.25,83.6,-80.56,-492.48
348696.0776,20.313,-183.183,1010.526,525.0,3972.5,-1960.0,97.28,-65.36,-472.72
348696.1276,34.343,-175.802,1006.256,1478.75,1338.75,-3648.75,101.84,-79.04,-469.68
348696.1776,41.297,-168.909,998.509,1417.5,3456.25,-568.75,86.64,-65.36,-474.24
348696.2276,27.206,-168.543,1001.071,997.5,2791.25,-831.25,97.28,-71.44,-481.84
348696.2776,43.798,-162.199,995.642,1330.0,2257.5,-735.0,92.72,-77.52,-469.68
348696.3276,43.554,-155.489,1000.095,595.0,3036.25,463.75,94.24,-83.6,-463.6
348696.3776,38.43,-164.029,1001.254,-385.0,2607.5,-1015.0,74.48,-76.0,-465.12
348696.4276,39.589,-163.602,999.851,52.5,3745.0,-875.0,82.08,-80.56,-477.28
348696.4776,36.783,-157.197,1003.023,-70.0,3780.0,-875.0,101.84,-86.64,-468.16
348696.5276,31.903,-154.574,1006.195,-1548.75,3141.25,-796.25,91.2,-85.12,-466.64
348696.5776,35.258,-178.547,997.899,-1111.25,3237.5,-603.75,80.56,-80.56,-472.72
348696.6276,31.781,-170.19,1002.535,-358.75,2817.5,-831.25,92.72,-71.44,-478.8
348696.6776,40.138,-170.312,999.729,1041.25,2791.25,-892.5,94.24,-74.48,-463.6
348696.7276,37.881,-162.992,1002.108,-166.25,2957.5,-192.5,77.52,-74.48,-460.56
348696.7776,38.064,-167.079,1001.315,288.75,3351.25,-656.25,85.12,-85.12,-483.36
348696.8276,35.197,-160.003,1000.217,-201.25,2948.75,-831.25,91.2,-85.12,-457.52
348696.8776,38.674,-168.543,1003.206,-630.0,3491.25,-673.75,91.2,-88.16,-468.16
348696.9276,31.171,-174.216,1004.792,472.5,3307.5,-1330.0,82.08,-71.44,-468.16
348696.9776,33.672,-163.419,999.058,892.5,3088.75,-1732.5,98.8,-68.4,-477.28
348697.0276,33.245,-164.578,1000.827,463.75,3167.5,-1023.75,91.2,-77.52,-460.56
348697.0776,34.77,-160.552,1000.217,8.75,3088.75,-271.25,91.2,-72.96,-481.84
348697.1276,35.258,-165.676,1001.193,-8.75,3080.0,105.0,97.28,-89.68,-463.6
348697.1776,34.526,-167.201,1003.511,-78.75,2931.25,-332.5,94.24,-74.48,-465.12
348697.2278,36.722,-164.883,1001.62,-166.25,2896.25,-726.25,95.76,-79.04,-469.68
348697.2776,35.99,-167.262,1002.718,-306.25,3088.75,-988.75,83.6,-77.52,-480.32
348697.3277,32.513,-170.251,1002.84,-245.0,2861.25,-1172.5,91.2,-68.4,-463.6
348697.3776,35.685,-168.726,1002.352,971.25,2922.5,-840.0,85.12,-83.6,-472.72
348697.4277,37.271,-157.319,1002.474,752.5,3438.75,-927.5,80.56,-79.04,-474.24
348697.4776,35.197,-162.809,1001.681,-1198.75,3491.25,-341.25,101.84,-69.92,-475.76
348697.5276,34.038,-162.687,996.557,-341.25,3167.5,-752.5,97.28,-76.0,-462.08
348697.5776,31.964,-174.216,1003.755,-1181.25,2992.5,-945.0,91.2,-76.0,-466.64
348697.6276,35.685,-168.665,1001.376,1067.5,2852.5,-1146.25,92.72,-65.36,-474.24
348697.6776,33.916,-161.528,1002.352,-411.25,3325.0,-638.75,89.68,-72.96,-462.08
348697.7276,35.746,-167.079,1002.352,525.0,3115.0,-332.5,97.28,-77.52,-457.52
348697.7776,34.343,-162.748,1002.291,253.75,2852.5,-787.5,86.64,-76.0,-466.64
348697.8276,38.308,-165.737,1000.766,-61.25,2940.0,-638.75,82.08,-80.56,-472.72
348697.8776,34.648,-167.872,1000.095,297.5,3640.0,-761.25,91.2,-80.56,-471.2
348697.9276,31.171,-160.003,1000.888,210.0,3220.0,-1190.0,85.12,-79.04,-471.2
348697.9776,32.879,-167.445,999.729,-621.25,3158.75,-770.0,91.2,-76.0,-478.8
348698.0276,30.256,-166.652,1003.511,-113.75,3010.0,-551.25,86.64,-68.4,-477.28
348698.0776,33.123,-168.177,1003.511,-367.5,2852.5,-551.25,95.76,-69.92,-456.0
348698.1276,37.637,-169.336,1000.583,280.0,2966.25,-341.25,88.16,-76.0,-475.76
348698.1776,32.513,-164.639,1002.596,-8.75,2940.0,-525.0,97.28,-80.56,-477.28
348698.2276,32.818,-163.48,1002.23,-157.5,2528.75,-1487.5,98.8,-69.92,-474.24
348698.2776,37.149,-170.251,1002.352,297.5,3036.25,-717.5,103.36,-66.88,-469.68
348698.3276,35.319,-168.604,1003.572,402.5,3298.75,-507.5,80.56,-88.16,-465.12
348698.3776,36.112,-168.299,1001.803,1548.75,2791.25,-472.5,95.76,-74.48,-484.88
348698.4276,34.953,-162.809,1002.596,1583.75,3351.25,-910.0,82.08,-83.6,-477.28
348698.4776,35.014,-166.042,1000.705,-227.5,3150.0,-1216.25,91.2,-83.6,-456.0
348698.5276,35.746,-165.005,999.485,-472.5,3473.75,-1023.75,91.2,-85.12,-475.76
348698.5776,30.134,-166.713,999.241,-682.5,3228.75,-638.75,95.76,-80.56,-480.32
348698.6276,27.755,-159.332,1000.339,26.25,2738.75,-840.0,91.2,-80.56,-468.16
348698.6776,30.622,-158.478,998.082,-542.5,2502.5,-253.75,98.8,-80.56,-471.2
348698.7276,27.023,-163.907,1004.548,-516.25,2642.5,87.5,89.68,-80.56,-474.24
348698.7776,37.82,-164.09,1002.596,-507.5,1820.0,-542.5,91.2,-68.4,-466.64
348698.8276,42.822,-166.53,1003.877,-866.25,2485.0,-866.25,92.72,-77.52,-472.72
348698.8776,35.868,-166.896,998.326,35.0,3718.75,-1513.75,101.84,-79.04,-452.96
348698.9276,27.755,-154.208,997.289,-1111.25,2310.0,-5136.25,85.12,-91.2,-471.2
348698.9776,38.918,-173.972,1001.803,-1216.25,3815.0,-1645.0,86.64,-74.48,-474.24
348699.0276,18.239,-169.946,1000.644,-1522.5,2616.25,-1461.25,98.8,-76.0,-463.6
348699.0776,54.046,-183.793,997.96,-1373.75,2187.5,-61.25,91.2,-80.56,-472.72
348699.1276,24.888,-179.096,1003.023,105.0,3771.25,2100.0,74.48,-76.0,-484.88
348699.1776,42.212,-178.547,999.424,1058.75,2922.5,1802.5,95.76,-68.4,-466.64
348699.2276,22.204,-172.63,1000.278,393.75,4077.5,2213.75,92.72,-82.08,-463.6
348699.2776,25.62,-169.214,997.167,-17.5,1198.75,-918.75,94.24,-76.0,-474.24
348699.3276,38.979,-175.253,999.851,-498.75,3272.5,-752.5,91.2,-65.36,-463.6
348699.3776,38.369,-160.918,998.204,-306.25,2406.25,-2240.0,89.68,-74.48,-457.52
348699.4276,40.138,-160.491,998.57,-2940.0,3307.5,-953.75,98.8,-72.96,-457.52
348699.4776,37.515,-183.732,996.801,-2528.75,3631.25,-1041.25,97.28,-77.52,-478.8
348699.5276,37.698,-188.551,999.79,-1618.75,3298.75,-1356.25,95.76,-69.92,-471.2
348699.5776,30.683,-186.843,1003.267,525.0,3596.25,-551.25,91.2,-71.44,-463.6
348699.6276,25.132,-176.351,1000.339,997.5,1907.5,-280.0,77.52,-74.48,-465.12
348699.6776,39.955,-173.301,996.618,1085.0,2651.25,-446.25,100.32,-79.04,-475.76
348699.7276,34.221,-173.484,997.655,-122.5,3001.25,253.75,98.8,-62.32,-457.52
348699.7776,36.539,-174.887,1000.461,-743.75,2791.25,-148.75,88.16,-71.44,-471.2
348699.8276,34.221,-177.266,999.058,35.0,4103.75,-201.25,92.72,-80.56,-483.36
348699.8776,29.707,-185.379,999.302,350.0,2555.0,-1575.0,88.16,-68.4,-472.72
348699.9276,38.918,-174.826,997.35,1286.25,2607.5,-1767.5,89.68,-83.6,-459.04
348699.9776,33.062,-171.41,997.35,-638.75,3482.5,-367.5,83.6,-74.48,-474.24
348700.0276,30.256,-178.974,1000.766,-8.75,2686.25,-157.5,97.28,-74.48,-466.64
348700.0776,36.539,-171.715,997.594,-122.5,2537.5,-988.75,94.24,-72.96,-465.12
348700.1276,39.833,-180.316,1002.352,-665.0,3307.5,26.25,94.24,-69.92,-463.6
348700.1776,33.184,-177.083,999.363,-638.75,3255.0,-315.0,85.12,-74.48,-468.16
348700.2276,32.696,-180.072,999.851,-245.0,2380.0,-1260.0,94.24,-74.48,-465.12
348700.2776,39.345,-173.972,1000.644,463.75,2730.0,-507.5,85.12,-71.44,-475.76
348700.3276,31.903,-179.523,1005.036,-1312.5,3220.0,-446.25,100.32,-63.84,-463.6
348700.3776,36.844,-189.039,997.777,813.75,2738.75,-735.0,100.32,-71.44,-472.72
348700.4276,34.709,-182.451,1000.583,717.5,3911.25,-551.25,85.12,-72.96,-465.12
348700.4776,26.901,-177.327,999.546,901.25,3132.5,-1373.75,97.28,-62.32,-483.36
348700.5276,32.513,-177.205,1003.023,621.25,2651.25,-1697.5,86.64,-77.52,-471.2
348700.5778,33.001,-172.996,998.265,516.25,3272.5,-1067.5,85.12,-74.48,-466.64
348700.6276,32.696,-174.155,1000.461,542.5,2502.5,-883.75,91.2,-69.92,-466.64
348700.6777,39.04,-171.776,1000.705,-376.25,2476.25,-1190.0,95.76,-74.48,-477.28
348700.7276,38.308,-173.301,1000.339,507.5,3998.75,-210.0,95.76,-80.56,-487.92
348700.7776,28.487,-171.898,999.546,-306.25,3377.5,-1111.25,86.64,-79.04,-463.6
348700.8276,33.245,-171.166,998.57,-166.25,2800.0,-1268.75,82.08,-68.4,-460.56
348700.8777,32.513,-176.839,998.936,-901.25,2695.0,-717.5,98.8,-72.96,-468.16
348700.9276,39.772,-179.706,999.851,-70.0,2835.0,183.75,91.2,-69.92,-454.48
348700.9776,33.001,-172.874,999.241,26.25,3115.0,385.0,92.72,-71.44,-486.4
348701.0276,33.977,-182.39,1002.047,-1102.5,2800.0,-96.25,85.12,-74.48,-471.2
348701.0776,36.112,-174.216,1001.498,2712.5,3106.25,-630.0,91.2,-71.44,-460.56
348701.1276,23.973,-170.983,999.851,-498.75,3193.75,-840.0,88.16,-77.52,-469.68
348701.1776,44.53,-171.593,997.289,367.5,3237.5,-1487.5,83.6,-71.44,-474.24
348701.2276,28.426,-182.756,1001.01,-787.5,3762.5,262.5,94.24,-77.52,-463.6
348701.2776,26.352,-178.12,998.753,-376.25,2406.25,-1295.0,92.72,-69.92,-469.68
348701.3276,38.918,-183.61,997.838,-271.25,2642.5,-1373.75,83.6,-72.96,-475.76
348701.3776,33.672,-181.231,1000.339,-306.25,3386.25,-560.0,85.12,-71.44,-468.16
348701.4276,28.426,-178.181,999.607,192.5,2283.75,-1286.25,97.28,-72.96,-465.12
348701.4776,37.027,-173.24,998.57,227.5,2677.5,-927.5,86.64,-79.04,-465.12
348701.5276,35.99,-175.314,998.936,-157.5,2983.75,-192.5,92.72,-80.56,-478.8
348701.5776,32.757,-179.462,999.973,-498.75,2948.75,-612.5,95.76,-72.96,-463.6
348701.6276,37.759,-179.035,1002.291,-105.0,2922.5,-735.0,80.56,-72.96,-460.56
348701.6776,29.951,-181.536,999.241,-201.25,3386.25,-953.75,98.8,-71.44,-471.2
348701.7276,30.073,-180.743,998.082,0.0,2327.5,-1163.75,89.68,-71.44,-463.6
348701.7776,34.343,-187.514,999.058,376.25,2441.25,-630.0,97.28,-74.48,-462.08
348701.8276,38.369,-177.632,996.984,192.5,2913.75,481.25,80.56,-62.32,-459.04
348701.8776,32.33,-177.205,996.679,-113.75,2966.25,-105.0,80.56,-76.0,-474.24
348701.9276,37.576,-181.597,997.045,-1102.5,2835.0,-962.5,92.72,-69.92,-475.76
348701.9776,35.99,-183.183,997.045,-210.0,2703.75,-1303.75,86.64,-69.92,-472.72
348702.0276,36.539,-183.488,1000.278,-166.25,3430.0,-813.75,85.12,-74.48,-471.2
348702.0776,34.465,-172.813,995.032,560.0,3526.25,-621.25,88.16,-77.52,-459.04
348702.1276,28.548,-172.508,1000.217,-1435.0,3482.5,-253.75,89.68,-71.44,-463.6
348702.1776,32.269,-184.525,997.167,-805.0,3141.25,-297.5,83.6,-74.48,-472.72
348702.2276,30.866,-190.564,997.716,-560.0,3045.0,-560.0,79.04,-62.32,-475.76
348702.2776,33.794,-185.623,1000.888,595.0,2782.5,-1085.0,91.2,-62.32,-480.32
348702.3276,29.768,-191.174,1002.291,1846.25,1863.75,-1295.0,88.16,-76.0,-460.56
348702.3776,40.687,-174.826,995.154,1513.75,2423.75,-350.0,85.12,-80.56,-471.2
348702.4276,31.598,-173.606,997.106,-96.25,3377.5,166.25,94.24,-69.92,-463.6
348702.4776,30.317,-176.9,999.424,-175.0,2327.5,-700.0,89.68,-77.52,-471.2
348702.5276,40.138,-185.684,998.936,-577.5,3631.25,-490.0,88.16,-72.96,-481.84
348702.5776,29.707,-173.911,1000.156,-402.5,3088.75,-1268.75,94.24,-66.88,-463.6
348702.6276,38.918,-174.887,996.74,-1076.25,2756.25,-1548.75,86.64,-74.48,-451.44
348702.6776,30.744,-183.854,1000.095,-1583.75,3885.0,-901.25,83.6,-65.36,-471.2
348702.7276,28.609,-193.736,1002.108,-1076.25,3202.5,-595.0,114.0,-68.4,-468.16
348702.7776,32.635,-191.662,999.851,551.25,2817.5,105.0,100.32,-69.92,-460.56
348702.8276,29.463,-183.427,996.679,1198.75,2310.0,-96.25,97.28,-65.36,-451.44
348702.8776,34.648,-176.534,998.082,-122.5,2467.5,96.25,79.04,-65.36,-469.68
348702.9276,33.794,-186.782,1001.376,-341.25,3290.0,-358.75,94.24,-71.44,-478.8
348702.9776,28.365,-190.381,998.021,-113.75,2817.5,-560.0,77.52,-74.48,-457.52
348703.0276,39.955,-183.122,995.276,805.0,3307.5,-437.5,88.16,-76.0,-480.32
348703.0776,30.256,-190.137,1001.376,-288.75,3018.75,-577.5,92.72,-69.92,-471.2
348703.1276,33.489,-186.843,998.387,1015.0,3176.25,-1058.75,94.24,-65.36,-468.16
348703.1776,33.855,-181.414,1000.644,1006.25,3403.75,-971.25,95.76,-72.96,-474.24
348703.2276,26.962,-179.828,996.923,682.5,3272.5,-1085.0,82.08,-80.56,-484.88
348703.2776,34.648,-177.266,999.18,271.25,2730.0,-953.75,97.28,-74.48,-468.16
348703.3276,38.308,-177.205,996.862,612.5,3237.5,-367.5,88.16,-66.88,-459.04
348703.3776,29.402,-179.279,1001.62,17.5,2878.75,-463.75,88.16,-66.88,-472.72
348703.4276,37.21,-182.634,998.387,175.0,3185.0,-542.5,101.84,-77.52,-469.68
348703.4776,34.038,-182.878,999.485,586.25,3456.25,-253.75,91.2,-72.96,-471.2
348703.5276,32.818,-177.51,998.814,945.0,2966.25,-918.75,82.08,-68.4,-468.16
348703.5776,26.84,-172.264,997.289,288.75,2983.75,-1505.0,83.6,-66.88,-480.32
348703.6276,30.561,-181.78,999.668,-288.75,2633.75,-1050.0,95.76,-66.88,-466.64
348703.6776,34.343,-180.743,998.387,428.75,2721.25,78.75,85.12,-79.04,-468.16
348703.7276,32.574,-180.621,999.851,166.25,3185.0,498.75,85.12,-71.44,-469.68
348703.7776,27.694,-172.935,1000.095,210.0,2441.25,-840.0,95.76,-71.44,-462.08
348703.8276,37.698,-179.645,997.35,-516.25,2660.0,-1076.25,85.12,-71.44,-463.6
348703.8776,32.574,-174.155,999.485,358.75,3185.0,262.5,86.64,-69.92,-478.8
348703.9278,32.33,-172.325,998.57,726.25,1995.0,26.25,82.08,-65.36,-469.68
348703.9776,34.343,-171.593,1001.376,-192.5,2607.5,-490.0,92.72,-72.96,-468.16
348704.0277,37.027,-184.708,998.021,-52.5,2940.0,-717.5,94.24,-76.0,-465.12
348704.0776,34.221,-177.266,1001.254,-131.25,3316.25,-1610.0,100.32,-79.04,-468.16
348704.1276,33.123,-182.024,999.485,-166.25,3395.0,-2030.0,104.88,-76.0,-466.64
348704.1776,28.426,-177.205,998.143,-323.75,3491.25,-1802.5,88.16,-72.96,-469.68
348704.2276,31.964,-179.523,999.973,-437.5,3036.25,-1373.75,86.64,-79.04,-466.64
348704.2776,29.707,-176.595,1001.01,157.5,3351.25,-1155.0,100.32,-82.08,-477.28
348704.3276,28.06,-172.752,1002.169,-323.75,2887.5,-945.0,92.72,-76.0,-465.12
348704.3776,33.733,-177.327,997.594,-455.0,2765.0,-1408.75,74.48,-77.52,-477.28
348704.4276,33.062,-179.157,1000.034,-315.0,3053.75,-953.75,98.8,-76.0,-475.76
348704.4776,28.243,-179.828,1000.278,-183.75,2826.25,-1023.75,83.6,-71.44,-468.16
348704.5276,35.807,-179.462,997.838,-682.5,2703.75,-455.0,83.6,-68.4,-471.2
348704.5776,33.855,-182.756,998.448,-665.0,2826.25,-183.75,77.52,-74.48,-471.2
348704.6276,37.332,-182.695,999.058,-393.75,2887.5,183.75,86.64,-69.92,-471.2
348704.6776,34.709,-182.695,997.716,-481.25,2817.5,-306.25,94.24,-69.92,-460.56
348704.7276,36.844,-187.331,1001.681,-472.5,3001.25,-971.25,83.6,-77.52,-472.72
348704.7776,37.515,-185.806,998.204,183.75,3482.5,-1015.0,95.76,-77.52,-478.8
348704.8276,32.513,-183.61,998.936,822.5,2773.75,-901.25,94.24,-76.0,-463.6
348704.8776,34.16,-171.166,998.021,350.0,3508.75,-673.75,95.76,-72.96,-456.0
348704.9276,32.33,-179.218,997.228,-1286.25,2826.25,-175.0,98.8,-79.04,-466.64
348704.9776,32.391,-183.427,999.119,-866.25,3045.0,-1111.25,88.16,-74.48,-472.72
348705.0276,34.404,-187.209,1001.01,166.25,3018.75,-1198.75,88.16,-68.4,-469.68
348705.0776,33.672,-183.61,999.851,332.5,3176.25,-805.0,79.04,-76.0,-463.6
348705.1276,30.561,-183.183,999.607,437.5,2861.25,-463.75,86.64,-74.48,-459.04
348705.1776,35.258,-177.876,997.228,988.75,2861.25,-463.75,91.2,-85.12,-474.24
348705.2276,32.879,-177.876,996.862,-472.5,3080.0,-341.25,95.76,-68.4,-466.64
348705.2776,41.907,-181.048,997.35,-1050.0,3727.5,8.75,104.88,-65.36,-463.6
348705.3276,34.099,-182.939,997.35,-866.25,4016.25,-227.5,112.48,-71.44,-466.64
348705.3776,22.387,-181.109,996.679,-271.25,3062.5,-1382.5,88.16,-59.28,-460.56
348705.4276,13.115,-178.73,1000.522,-1015.0,1767.5,-1531.25,88.16,-69.92,-475.76
348705.4776,28.853,-186.904,997.899,-1435.0,-70.0,-2345.0,94.24,-77.52,-466.64
348705.5276,46.787,-195.322,999.729,-936.25,1391.25,43.75,83.6,-68.4,-480.32
348705.5776,42.944,-192.089,998.021,-533.75,2091.25,367.5,91.2,-71.44,-465.12
348705.6276,44.286,-189.1,995.032,166.25,2808.75,-481.25,98.8,-62.32,-448.4
348705.6776,37.271,-185.806,994.3,-507.5,2791.25,-1303.75,88.16,-65.36,-462.08
348705.7276,40.077,-192.516,997.716,-910.0,2590.0,-1610.0,85.12,-77.52,-463.6
348705.7776,39.223,-197.518,996.74,-323.75,3281.25,-980.0,85.12,-65.36,-472.72
348705.8276,39.345,-189.588,999.973,472.5,2677.5,-805.0,89.68,-69.92,-456.0
348705.8776,37.21,-190.442,996.191,-682.5,2660.0,-70.0,77.52,-69.92,-454.48
348705.9276,34.526,-188.063,993.324,-1006.25,2397.5,-481.25,74.48,-74.48,-477.28
348705.9776,50.02,-202.947,997.777,-472.5,2292.5,-78.75,101.84,-65.36,-474.24
348706.0276,45.323,-201.239,999.363,568.75,3176.25,262.5,86.64,-77.52,-459.04
348706.0776,38.125,-195.932,996.557,813.75,3001.25,-883.75,88.16,-68.4,-474.24
348706.1276,47.641,-187.941,992.409,1443.75,3220.0,-1233.75,86.64,-66.88,-466.64
348706.1776,39.528,-182.939,996.862,350.0,3403.75,-822.5,104.88,-72.96,-465.12
348706.2276,37.942,-190.32,997.472,-113.75,2975.0,-892.5,89.68,-63.84,-463.6
348706.2776,41.846,-191.662,996.862,113.75,2896.25,-1041.25,98.8,-60.8,-454.48
348706.3276,39.284,-186.599,995.337,52.5,3088.75,-1233.75,88.16,-74.48,-477.28
348706.3776,39.162,-189.588,993.69,113.75,3045.0,-875.0,101.84,-68.4,-465.12
348706.4276,38.43,-187.27,997.655,358.75,3080.0,-323.75,91.2,-74.48,-460.56
348706.4776,41.358,-191.784,995.825,78.75,2555.0,-245.0,91.2,-65.36,-471.2
348706.5276,43.676,-189.832,995.093,-52.5,3088.75,-26.25,92.72,-71.44,-463.6
348706.5776,38.552,-188.917,996.252,323.75,3500.0,-463.75,82.08,-68.4,-448.4
348706.6276,35.319,-191.906,996.923,-192.5,3220.0,-918.75,82.08,-71.44,-468.16
348706.6776,38.613,-194.224,997.655,271.25,3150.0,-1338.75,82.08,-72.96,-459.04
348706.7276,38.125,-184.769,996.557,752.5,3438.75,-761.25,98.8,-57.76,-465.12
348706.7776,40.504,-185.867,997.777,306.25,3605.0,-726.25,88.16,-83.6,-457.52
348706.8276,38.369,-188.734,999.119,-1233.75,3438.75,-288.75,91.2,-66.88,-459.04
348706.8776,36.234,-190.808,995.276,-105.0,3587.5,-735.0,82.08,-63.84,-468.16
348706.9276,35.868,-194.163,997.167,-175.0,3316.25,-787.5,101.84,-68.4,-456.0
348706.9776,32.757,-190.076,998.143,656.25,3377.5,-568.75,91.2,-68.4,-471.2
348707.0276,33.184,-184.891,997.899,-297.5,3097.5,-848.75,86.64,-74.48,-474.24
348707.0776,34.282,-187.88,998.997,560.0,3062.5,-1303.75,88.16,-83.6,-469.68
348707.1276,34.709,-190.137,999.729,-288.75,3027.5,-393.75,83.6,-72.96,-462.08
348707.1776,38.43,-196.115,1000.766,393.75,2861.25,-271.25,92.72,-66.88,-468.16
348707.2276,37.759,-188.551,995.459,1216.25,3202.5,-796.25,91.2,-76.0,-469.68
348707.2778,35.014,-184.342,994.666,446.25,3185.0,-997.5,88.16,-59.28,-468.16
348707.3276,32.147,-185.257,996.74,218.75,2511.25,-1522.5,92.72,-72.96,-462.08
348707.3777,36.234,-186.233,997.228,-691.25,2633.75,-866.25,83.6,-66.88,-451.44
348707.4276,38.125,-191.296,996.618,236.25,2616.25,-201.25,94.24,-63.84,-469.68
348707.4777,36.539,-187.941,997.899,-463.75,2913.75,96.25,89.68,-69.92,-471.2
348707.5276,33.733,-191.418,999.607,-376.25,2913.75,-393.75,98.8,-71.44,-478.8
348707.5776,33.916,-189.527,995.337,638.75,2861.25,-971.25,98.8,-62.32,-468.16
348707.6276,38.796,-183.122,995.947,420.0,2476.25,-638.75,94.24,-63.84,-445.36
348707.6776,35.319,-180.133,1000.034,-1207.5,3158.75,-385.0,80.56,-63.84,-474.24
348707.7276,37.881,-197.701,994.483,-437.5,3132.5,-568.75,82.08,-59.28,-475.76
348707.7776,34.038,-197.884,996.984,-332.5,3255.0,-831.25,91.2,-72.96,-460.56
348707.8276,35.502,-196.359,996.801,542.5,3176.25,-638.75,74.48,-63.84,-463.6
348707.8776,32.452,-187.88,998.021,542.5,3167.5,-796.25,88.16,-66.88,-465.12
348707.9276,35.38,-188.185,994.483,1050.0,2808.75,-647.5,98.8,-72.96,-468.16
348707.9776,31.72,-183.366,996.374,-140.0,2633.75,-673.75,97.28,-79.04,-460.56
348708.0276,34.953,-188.124,998.082,-638.75,2161.25,-577.5,89.68,-69.92,-480.32
348708.0776,41.724,-193.919,998.936,78.75,3150.0,-726.25,80.56,-66.88,-477.28
348708.1276,35.502,-190.747,996.008,192.5,3106.25,-918.75,92.72,-60.8,-463.6
348708.1776,33.55,-189.954,995.398,393.75,2406.25,-1881.25,92.72,-71.44,-468.16
348708.2276,39.894,-187.27,994.117,-245.0,3307.5,-236.25,88.16,-57.76,-468.16
348708.2776,34.892,-188.307,996.496,-586.25,3281.25,280.0,91.2,-63.84,-457.52
348708.3276,36.478,-187.636,999.485,-253.75,2625.0,-280.0,88.16,-76.0,-457.52
348708.3776,39.955,-191.479,998.326,-822.5,3088.75,-525.0,85.12,-65.36,-466.64
348708.4276,35.075,-194.834,1002.23,78.75,2581.25,-1058.75,91.2,-66.88,-478.8
348708.4776,39.406,-188.612,995.154,1225.0,2581.25,-630.0,97.28,-62.32,-466.64
348708.5276,43.371,-182.512,993.08,525.0,3710.0,78.75,86.64,-66.88,-468.16
348708.5776,32.208,-190.625,994.91,-971.25,3053.75,-516.25,89.68,-69.92,-481.84
348708.6276,38.003,-195.2,992.531,-717.5,2975.0,-1006.25,80.56,-69.92,-457.52
348708.6776,33.794,-198.921,998.265,0.0,3508.75,-831.25,91.2,-65.36,-463.6
348708.7276,33.489,-196.725,996.984,568.75,2975.0,-927.5,88.16,-59.28,-478.8
348708.7776,33.611,-188.795,995.703,393.75,2887.5,-516.25,97.28,-69.92,-463.6
348708.8276,32.94,-182.573,997.35,-26.25,3141.25,-507.5,104.88,-72.96,-471.2
348708.8776,35.929,-188.368,996.862,-341.25,3018.75,-358.75,77.52,-65.36,-472.72
348708.9276,36.783,-190.076,995.032,-533.75,2922.5,-691.25,85.12,-59.28,-468.16
348708.9776,35.563,-192.577,998.631,183.75,2896.25,-927.5,91.2,-65.36,-463.6
348709.0276,31.598,-189.954,999.79,61.25,3237.5,-1207.5,88.16,-71.44,-459.04
348709.0776,33.001,-190.808,997.594,-26.25,2922.5,-1216.25,91.2,-72.96,-474.24
348709.1276,35.502,-189.039,994.666,-297.5,2817.5,-630.0,86.64,-77.52,-469.68
348709.1776,34.16,-195.871,997.899,-306.25,3097.5,-113.75,94.24,-76.0,-457.52
348709.2276,35.685,-195.383,997.655,96.25,2966.25,-332.5,91.2,-74.48,-465.12
348709.2776,35.502,-190.076,998.204,148.75,2852.5,-647.5,80.56,-69.92,-466.64
348709.3276,35.502,-189.588,996.069,-805.0,3036.25,-735.0,92.72,-69.92,-468.16
348709.3776,31.598,-195.383,999.058,35.0,2817.5,-857.5,88.16,-82.08,-454.48
348709.4276,36.966,-190.991,993.934,192.5,3167.5,-717.5,89.68,-68.4,-459.04
348709.4776,38.857,-189.222,996.496,822.5,3325.0,-472.5,97.28,-66.88,-472.72
348709.5276,25.559,-184.22,998.509,-1286.25,3561.25,-586.25,101.84,-68.4,-452.96
348709.5776,37.576,-197.274,997.045,-700.0,3088.75,-910.0,80.56,-63.84,-472.72
348709.6276,34.831,-199.47,999.668,-385.0,3517.5,-498.75,91.2,-53.2,-468.16
348709.6776,29.402,-195.993,997.228,586.25,3080.0,-1067.5,88.16,-62.32,-469.68
348709.7276,29.646,-192.272,994.361,516.25,3255.0,-1163.75,85.12,-77.52,-449.92
348709.7776,33.794,-187.575,994.666,288.75,3010.0,-743.75,88.16,-69.92,-472.72
348709.8276,34.526,-185.013,992.897,-323.75,2922.5,-638.75,97.28,-66.88,-474.24
348709.8776,35.929,-187.392,995.52,-1067.5,2878.75,-533.75,94.24,-83.6,-463.6
348709.9276,33.184,-193.736,999.058,-105.0,3421.25,-665.0,92.72,-74.48,-456.0
348709.9776,30.256,-189.161,995.032,-595.0,3307.5,-761.25,100.32,-63.84,-459.04
348710.0276,29.28,-196.847,995.703,-560.0,3325.0,-796.25,103.36,-66.88,-463.6
348710.0776,32.391,-196.481,996.984,-236.25,2782.5,-586.25,77.52,-65.36,-463.6
348710.1276,33.672,-197.396,998.204,-52.5,2721.25,-595.0,79.04,-60.8,-463.6
348710.1776,34.892,-196.054,998.021,-280.0,3255.0,-280.0,86.64,-66.88,-472.72
348710.2276,30.927,-197.396,995.459,341.25,3613.75,-568.75,98.8,-72.96,-457.52
348710.2776,31.781,-193.37,995.093,26.25,2607.5,-1198.75,98.8,-63.84,-468.16
348710.3276,34.831,-193.98,997.472,78.75,2756.25,-813.75,83.6,-60.8,-477.28
348710.3776,29.158,-193.736,998.753,-577.5,2756.25,-402.5,101.84,-65.36,-465.12
348710.4276,34.953,-197.335,998.326,621.25,2546.25,-945.0,91.2,-68.4,-466.64
348710.4776,40.382,-186.782,996.923,1373.75,2642.5,-630.0,100.32,-66.88,-466.64
348710.5276,31.598,-183.122,1001.01,-936.25,3263.75,-647.5,91.2,-71.44,-462.08
348710.5776,34.282,-199.47,993.568,-787.5,2948.75,-910.0,101.84,-71.44,-456.0
348710.6276,35.685,-199.592,994.727,-420.0,3736.25,-306.25,85.12,-72.96,-469.68
348710.6776,28.975,-197.274,998.936,822.5,3123.75,-936.25,72.96,-63.84,-474.24
348710.7279,28.121,-189.893,995.947,437.5,3001.25,-1137.5,76.0,-62.32,-469.68
348710.7776,33.367,-191.967,993.873,446.25,3176.25,-253.75,91.2,-63.84,-457.52
348710.8277,32.757,-180.316,993.568,-402.5,3911.25,218.75,91.2,-62.32,-460.56
348710.8776,27.267,-198.25,999.668,-1015.0,3762.5,-8.75,95.76,-62.32,-457.52
348710.9276,28.67,-197.457,994.483,96.25,3263.75,-1015.0,88.16,-66.88,-468.16
348710.9776,28.609,-196.603,994.91,236.25,3071.25,-1566.25,86.64,-76.0,-472.72
348711.0276,25.315,-193.37,995.581,271.25,3097.5,-1496.25,88.16,-69.92,-478.8
348711.0776,30.073,-189.588,997.411,43.75,2738.75,-516.25,89.68,-71.44,-465.12
348711.1276,25.376,-192.699,996.801,-577.5,2318.75,-551.25,83.6,-60.8,-446.88
348711.1776,35.197,-195.993,997.35,-481.25,2388.75,-297.5,88.16,-60.8,-472.72
348711.2276,33.184,-200.08,997.045,43.75,2861.25,17.5,91.2,-53.2,-465.12
348711.2776,30.073,-195.261,997.594,586.25,2196.25,-901.25,98.8,-82.08,-459.04
348711.3276,34.892,-193.431,996.374,271.25,2161.25,-1330.0,89.68,-66.88,-466.64
348711.3776,31.72,-190.625,992.409,315.0,3255.0,-630.0,91.2,-56.24,-463.6
348711.4276,32.574,-186.477,997.472,358.75,3167.5,-1260.0,115.52,-63.84,-465.12
348711.4776,31.476,-188.185,996.557,-1277.5,3027.5,-866.25,97.28,-76.0,-472.72
348711.5276,33.733,-199.409,993.69,201.25,3377.5,-840.0,95.76,-68.4,-478.8
348711.5776,33.123,-196.115,997.167,-428.75,3351.25,-857.5,86.64,-63.84,-474.24
348711.6276,28.792,-193.98,998.509,717.5,3036.25,-1225.0,97.28,-76.0,-457.52
348711.6776,27.694,-189.588,998.692,70.0,2861.25,-1251.25,88.16,-74.48,-460.56
348711.7276,33.306,-192.211,994.056,350.0,3150.0,-787.5,89.68,-66.88,-474.24
348711.7776,29.646,-190.869,998.631,-262.5,2843.75,-446.25,97.28,-69.92,-462.08
348711.8276,34.404,-196.115,998.021,-358.75,2878.75,-507.5,97.28,-60.8,-462.08
348711.8776,32.94,-196.42,993.812,-61.25,3412.5,-752.5,94.24,-71.44,-477.28
348711.9276,26.962,-194.956,995.886,-8.75,2992.5,-1085.0,72.96,-65.36,-477.28
348711.9776,30.927,-193.126,994.849,-61.25,2905.0,-1251.25,100.32,-80.56,-459.04
348712.0276,31.049,-194.163,996.252,-586.25,2800.0,0.0,80.56,-69.92,-454.48
348712.0776,30.744,-196.115,997.899,-350.0,2738.75,481.25,85.12,-63.84,-475.76
348712.1276,24.705,-198.067,996.191,-918.75,3578.75,1548.75,97.28,-72.96,-459.04
348712.1776,17.751,-201.178,1000.217,-376.25,2047.5,490.0,86.64,-57.76,-442.32
348712.2276,36.112,-199.836,995.886,52.5,1268.75,-1356.25,85.12,-69.92,-478.8
348712.2776,35.014,-197.152,996.374,945.0,2222.5,-586.25,89.68,-68.4,-459.04
348712.3276,42.151,-194.041,992.592,1023.75,2170.0,-595.0,95.76,-65.36,-459.04
348712.3776,39.772,-191.845,995.337,-551.25,3578.75,0.0,83.6,-68.4,-468.16
348712.4276,29.768,-195.627,991.677,70.0,3596.25,-341.25,95.76,-79.04,-466.64
348712.4776,32.086,-198.189,996.374,-420.0,2511.25,-1881.25,106.4,-68.4,-460.56
348712.5276,34.221,-199.165,998.509,105.0,2616.25,-1067.5,86.64,-57.76,-466.64
348712.5776,31.903,-197.213,1001.498,-210.0,2800.0,-1041.25,97.28,-60.8,-474.24
348712.6276,42.334,-194.651,996.008,1365.0,2633.75,-157.5,95.76,-69.92,-462.08
348712.6776,36.539,-188.002,996.252,787.5,2747.5,26.25,89.68,-65.36,-456.0
348712.7276,38.735,-190.076,994.91,-157.5,2511.25,-673.75,76.0,-54.72,-478.8
348712.7776,45.384,-190.93,992.714,113.75,3508.75,-918.75,98.8,-69.92,-463.6
348712.8276,33.733,-192.577,994.666,-638.75,4103.75,-840.0,88.16,-66.88,-454.48
348712.8776,28.67,-193.858,997.472,-288.75,3027.5,-1881.25,77.52,-71.44,-477.28
348712.9276,36.173,-195.993,996.313,-297.5,3071.25,-1006.25,101.84,-60.8,-460.56
348712.9776,30.134,-197.945,996.74,52.5,3132.5,17.5,100.32,-72.96,-472.72
348713.0276,31.354,-194.834,992.226,52.5,2703.75,-271.25,95.76,-69.92,-466.64
348713.0776,35.38,-193.187,995.825,280.0,2703.75,-577.5,72.96,-68.4,-474.24
348713.1276,34.16,-196.969,997.228,-525.0,3123.75,-437.5,95.76,-66.88,-469.68
348713.1776,33.672,-196.603,998.57,498.75,2791.25,-892.5,82.08,-65.36,-468.16
348713.2276,36.539,-192.882,995.764,700.0,2800.0,-577.5,85.12,-60.8,-465.12
348713.2776,34.831,-186.294,993.873,350.0,3508.75,-350.0,94.24,-74.48,-462.08
348713.3276,32.513,-195.078,994.605,-682.5,2572.5,-700.0,97.28,-72.96,-469.68
348713.3776,37.576,-202.093,994.849,-778.75,2966.25,-577.5,88.16,-62.32,-472.72
348713.4276,35.807,-198.799,992.775,463.75,3141.25,-411.25,80.56,-65.36,-454.48
348713.4776,29.768,-195.505,995.581,551.25,2835.0,-787.5,91.2,-66.88,-465.12
348713.5276,34.526,-190.564,994.91,341.25,2642.5,-892.5,92.72,-66.88,-466.64
348713.5776,35.868,-187.819,995.215,-201.25,3465.0,-140.0,83.6,-53.2,-463.6
348713.6276,32.879,-192.089,999.729,-1277.5,2992.5,17.5,83.6,-65.36,-465.12
348713.6776,34.587,-199.287,998.387,-918.75,3088.75,-717.5,101.84,-68.4,-472.72
348713.7276,37.271,-196.054,997.35,-61.25,3386.25,-813.75,72.96,-62.32,-471.2
348713.7776,30.866,-197.03,995.825,-105.0,3272.5,-691.25,91.2,-66.88,-456.0
348713.8276,29.524,-195.078,996.923,-210.0,2905.0,-866.25,80.56,-79.04,-460.56
348713.8776,36.478,-199.653,993.08,-411.25,3115.0,-26.25,68.4,-71.44,-459.04
348713.9276,30.134,-200.69,996.496,-437.5,2931.25,-183.75,97.28,-53.2,-477.28
348713.9778,34.953,-200.995,997.289,-175.0,2835.0,-761.25,106.4,-68.4,-457.52
348714.0276,36.356,-197.274,993.812,96.25,3202.5,-455.0,101.84,-57.76,-463.6
348714.0777,41.175,-196.115,994.849,-630.0,3412.5,-743.75,83.6,-60.8,-469.68
348714.1276,32.086,-199.836,995.642,-577.5,4025.0,-1260.0,79.04,-72.96,-456.0
348714.1776,24.644,-206.546,997.655,-70.0,3920.0,-1058.75,97.28,-72.96,-468.16
348714.2276,33.672,-189.649,997.411,682.5,3045.0,-840.0,83.6,-66.88,-463.6
348714.2776,31.537,-192.76,994.727,-516.25,3220.0,26.25,97.28,-65.36,-475.76
348714.3276,25.925,-201.056,989.298,201.25,3115.0,-551.25,95.76,-63.84,-463.6
348714.3776,31.415,-199.531,994.971,-262.5,2940.0,-1093.75,86.64,-63.84,-466.64
348714.4276,31.781,-200.873,997.106,315.0,2817.5,-542.5,89.68,-65.36,-480.32
348714.4776,29.341,-200.568,994.544,-105.0,2450.0,-78.75,85.12,-77.52,-457.52
348714.5276,35.563,-197.701,993.141,1137.5,2590.0,-332.5,91.2,-63.84,-462.08
348714.5776,32.086,-190.93,995.032,796.25,2677.5,-612.5,91.2,-62.32,-459.04
348714.6276,33.062,-189.161,994.849,-113.75,3088.75,-288.75,86.64,-76.0,-465.12
348714.6776,32.33,-199.531,999.79,-306.25,3263.75,-787.5,97.28,-68.4,-474.24
348714.7276,31.354,-195.566,996.252,280.0,2861.25,-1207.5,82.08,-68.4,-459.04
348714.7776,28.792,-195.749,994.544,17.5,2922.5,-980.0,89.68,-66.88,-480.32
348714.8276,28.853,-196.664,996.496,-1032.5,2686.25,-455.0,100.32,-68.4,-465.12
348714.8776,29.402,-205.265,997.838,227.5,2161.25,-988.75,97.28,-60.8,-459.04
348714.9276,39.528,-198.128,995.52,787.5,2668.75,-323.75,101.84,-71.44,-451.44
348714.9776,31.781,-192.089,996.191,1058.75,2852.5,-542.5,83.6,-63.84,-480.32
348715.0276,34.77,-188.063,995.642,568.75,2633.75,-1032.5,89.68,-65.36,-465.12
348715.0779,39.955,-193.919,993.751,183.75,3482.5,-962.5,83.6,-71.44,-459.04
348715.1276,29.524,-194.285,995.337,402.5,3167.5,-1601.25,91.2,-63.84,-477.28
348715.1776,35.868,-184.769,994.971,280.0,3605.0,-1426.25,92.72,-63.84,-457.52
348715.2276,28.121,-190.015,996.435,-1872.5,3465.0,-341.25,91.2,-68.4,-466.64
348715.2776,30.439,-198.921,994.605,-603.75,3001.25,-665.0,83.6,-69.92,-475.76
348715.3276,33.55,-204.289,998.692,-472.5,3027.5,-1137.5,92.72,-65.36,-478.8
348715.3776,32.025,-200.934,998.448,131.25,3088.75,-1452.5,92.72,-68.4,-457.52
348715.4276,31.903,-196.786,996.435,262.5,2502.5,-691.25,94.24,-62.32,-456.0
348715.4776,31.72,-196.664,996.984,393.75,3386.25,-455.0,80.56,-76.0,-471.2
348715.5276,30.317,-192.943,997.655,52.5,2905.0,-516.25,106.4,-65.36,-466.64
348715.5776,36.356,-196.42,996.557,-245.0,3421.25,-708.75,92.72,-74.48,-463.6
348715.6276,30.561,-196.237,997.472,288.75,3255.0,-1015.0,83.6,-71.44,-465.12
348715.6776,27.084,-194.956,993.751,-253.75,2975.0,-1741.25,100.32,-62.32,-451.44
348715.7276,31.171,-192.333,994.91,0.0,2485.0,-822.5,85.12,-68.4,-459.04
348715.7776,32.086,-195.627,995.337,-402.5,2983.75,78.75,89.68,-77.52,-462.08
348715.8276,30.927,-196.908,998.814,26.25,2581.25,96.25,88.16,-72.96,-474.24
348715.8776,33.184,-196.847,993.629,70.0,2861.25,175.0,106.4,-59.28,-468.16
348715.9276,31.232,-194.773,996.252,-227.5,2397.5,-840.0,92.72,-65.36,-468.16
348715.9776,34.953,-200.263,998.753,-376.25,2415.0,-1391.25,80.56,-69.92,-472.72
348716.0276,37.698,-200.568,995.886,-148.75,3403.75,-945.0,94.24,-63.84,-463.6
348716.0776,34.343,-194.895,995.703,936.25,3132.5,-603.75,101.84,-66.88,-463.6
348716.1276,28.365,-186.233,996.313,-113.75,3500.0,-682.5,95.76,-59.28,-471.2
348716.1776,32.452,-202.276,994.849,-218.75,2835.0,-542.5,94.24,-68.4,-460.56
348716.2276,34.831,-198.372,994.117,-735.0,3141.25,-673.75,91.2,-63.84,-462.08
348716.2776,32.208,-200.568,1000.4,437.5,3027.5,-796.25,79.04,-59.28,-449.92
348716.3276,31.964,-194.224,995.52,78.75,3115.0,-630.0,97.28,-71.44,-469.68
348716.3776,33.733,-195.2,996.008,-306.25,2695.0,-253.75,85.12,-72.96,-463.6
348716.4276,31.598,-199.104,996.74,621.25,3368.75,192.5,88.16,-66.88,-454.48
348716.4776,29.219,-193.797,997.045,446.25,3123.75,26.25,85.12,-68.4,-481.84
348716.5276,35.746,-196.603,994.178,0.0,2712.5,-1365.0,101.84,-57.76,-456.0
348716.5776,30.683,-193.37,995.459,402.5,3587.5,-962.5,92.72,-71.44,-469.68
348716.6276,28.67,-195.688,994.3,-17.5,3123.75,-1146.25,79.04,-74.48,-469.68
348716.6776,36.234,-191.479,994.117,-822.5,3272.5,-210.0,100.32,-57.76,-466.64
348716.7276,29.341,-196.542,994.605,-927.5,3640.0,463.75,98.8,-68.4,-463.6
348716.7776,26.291,-205.143,998.814,-918.75,2318.75,-402.5,91.2,-66.88,-468.16
348716.8276,34.465,-200.629,996.923,358.75,2843.75,-315.0,86.64,-57.76,-472.72
348716.8776,32.208,-197.945,997.35,481.25,2782.5,-700.0,89.68,-63.84,-465.12
348716.9276,32.269,-196.786,996.191,-52.5,2747.5,-1715.0,80.56,-86.64,-456.0
348716.9776,37.088,-197.152,993.751,210.0,2870.0,-1251.25,86.64,-63.84,-463.6
348717.0276,28.426,-201.91,995.581,358.75,2966.25,-708.75,97.28,-66.88,-454.48
348717.0776,31.72,-193.736,993.995,0.0,3220.0,-735.0,101.84,-71.44,-459.04
348717.1276,28.121,-201.3,996.069,-1216.25,3176.25,-402.5,80.56,-65.36,-462.08
348717.1776,28.975,-199.287,995.093,17.5,2948.75,-778.75,106.4,-57.76,-477.28
348717.2278,30.927,-207.461,996.984,-8.75,2975.0,-927.5,100.32,-71.44,-460.56
348717.2776,29.707,-195.688,996.984,516.25,2957.5,-656.25,86.64,-66.88,-466.64
348717.3277,30.256,-196.298,994.971,-192.5,3053.75,-595.0,95.76,-69.92,-465.12
348717.3776,32.696,-198.738,995.703,306.25,2773.75,-262.5,88.16,-63.84,-460.56
348717.4277,29.219,-197.518,998.57,-280.0,2913.75,-455.0,80.56,-66.88,-460.56
348717.4776,31.598,-196.725,996.252,-332.5,2695.0,-472.5,88.16,-63.84,-480.32
348717.5276,33.123,-200.141,994.666,-183.75,3176.25,-883.75,88.16,-56.24,-468.16
348717.5776,29.829,-200.446,994.361,-70.0,3053.75,-1146.25,106.4,-71.44,-452.96
348717.6276,31.293,-199.958,994.117,-148.75,2913.75,-831.25,83.6,-56.24,-469.68
348717.6776,28.792,-203.191,996.008,61.25,2747.5,-262.5,94.24,-50.16,-475.76
348717.7276,33.672,-203.557,996.008,402.5,2738.75,-490.0,94.24,-72.96,-457.52
348717.7776,34.465,-197.64,994.361,393.75,2730.0,-848.75,83.6,-66.88,-469.68
348717.8276,33.733,-198.982,996.435,-43.75,3001.25,-1032.5,89.68,-66.88,-466.64
348717.8776,29.585,-197.762,994.91,87.5,3088.75,-1391.25,104.88,-76.0,-454.48
348717.9276,31.415,-203.13,998.204,87.5,3220.0,-971.25,86.64,-68.4,-452.96
348717.9776,34.282,-198.738,997.655,717.5,3325.0,-595.0,86.64,-71.44,-474.24
348718.0276,29.158,-195.322,994.605,568.75,3036.25,-586.25,91.2,-65.36,-457.52
348718.0776,31.415,-190.808,994.727,61.25,3193.75,-997.5,101.84,-71.44,-465.12
348718.1276,32.025,-202.398,994.3,-1758.75,2861.25,-315.0,85.12,-77.52,-471.2
348718.1776,30.378,-207.095,997.045,-376.25,2905.0,-385.0,76.0,-63.84,-460.56
348718.2276,30.805,-204.96,994.361,358.75,2861.25,-428.75,101.84,-62.32,-457.52
348718.2776,29.219,-201.483,997.045,796.25,3097.5,-752.5,86.64,-66.88,-466.64
348718.3276,29.463,-197.64,991.86,1032.5,2756.25,-708.75,89.68,-57.76,-490.96
348718.3776,29.646,-190.808,993.141,-17.5,3185.0,-875.0,100.32,-68.4,-469.68
348718.4276,33.916,-193.309,998.326,-595.0,3123.75,-691.25,74.48,-65.36,-465.12
348718.4776,34.587,-201.666,998.631,-341.25,3508.75,-341.25,95.76,-62.32,-474.24
348718.5276,26.23,-198.982,996.862,-17.5,3193.75,-796.25,91.2,-60.8,-462.08
348718.5776,27.45,-200.202,995.52,455.0,3027.5,-1251.25,110.96,-72.96,-460.56
348718.6276,30.561,-196.664,993.934,376.25,3158.75,-463.75,97.28,-71.44,-460.56
348718.6776,29.036,-195.627,995.703,17.5,2957.5,-175.0,94.24,-68.4,-465.12
348718.7276,31.842,-198.311,994.178,-201.25,2546.25,-8.75,101.84,-74.48,-477.28
348718.7776,30.134,-202.52,995.764,210.0,3158.75,-96.25,89.68,-68.4,-459.04
348718.8276,31.598,-199.104,998.692,735.0,3263.75,-472.5,89.68,-74.48,-469.68
348718.8776,28.243,-198.799,996.374,253.75,3123.75,-1312.5,94.24,-72.96,-460.56
348718.9276,29.646,-199.165,997.35,752.5,3106.25,-1767.5,83.6,-62.32,-446.88
348718.9776,30.378,-190.015,992.653,971.25,2983.75,-988.75,92.72,-72.96,-459.04
348719.0276,28.609,-185.623,997.228,-428.75,3333.75,-218.75,92.72,-65.36,-472.72
348719.0776,31.293,-198.494,994.849,-1531.25,3027.5,70.0,95.76,-69.92,-460.56
348719.1276,30.378,-199.226,995.337,-525.0,3010.0,-892.5,91.2,-62.32,-472.72
348719.1776,31.11,-206.424,999.241,-472.5,3185.0,-813.75,80.56,-68.4,-462.08
348719.2276,26.657,-199.958,998.753,1776.25,3307.5,-1382.5,94.24,-60.8,-465.12
348719.2776,29.89,-195.383,990.823,446.25,2852.5,-1128.75,114.0,-53.2,-465.12
348719.3276,25.742,-190.32,994.361,113.75,2983.75,-840.0,74.48,-62.32,-471.2
348719.3776,33.977,-193.553,995.581,113.75,2922.5,-183.75,91.2,-66.88,-469.68
348719.4276,34.831,-196.42,997.228,61.25,3325.0,-253.75,82.08,-59.28,-463.6
348719.4776,25.986,-193.614,996.252,35.0,3762.5,-1146.25,91.2,-53.2,-463.6
348719.5276,25.498,-192.028,994.178,17.5,2992.5,-1898.75,95.76,-68.4,-469.68
348719.5776,26.779,-195.993,998.57,-420.0,3211.25,-1085.0,98.8,-69.92,-465.12
348719.6276,23.18,-195.2,997.899,-245.0,3141.25,-673.75,97.28,-71.44,-465.12
348719.6776,22.692,-200.202,995.093,-148.75,2520.0,-621.25,86.64,-62.32,-468.16
348719.7276,27.267,-195.932,993.568,245.0,2240.0,-35.0,86.64,-59.28,-451.44
348719.7776,23.546,-195.383,996.618,-901.25,2555.0,-35.0,100.32,-71.44,-466.64
348719.8276,29.036,-196.176,995.825,-665.0,2012.5,-1102.5,94.24,-65.36,-471.2
348719.8776,35.258,-202.764,994.3,-43.75,2467.5,-735.0,112.48,-63.84,-469.68
348719.9276,34.953,-192.577,994.544,332.5,3333.75,-332.5,100.32,-63.84,-460.56
348719.9776,29.341,-201.666,996.13,-1207.5,2686.25,-577.5,89.68,-63.84,-468.16
348720.0276,35.441,-205.448,991.433,8.75,3316.25,-612.5,82.08,-63.84,-474.24
348720.0776,26.718,-206.973,997.594,-105.0,3150.0,-883.75,101.84,-76.0,-460.56
348720.1276,29.463,-202.215,997.716,630.0,2607.5,-1531.25,82.08,-74.48,-474.24
348720.1776,28.365,-198.494,995.581,157.5,2913.75,-726.25,91.2,-71.44,-472.72
348720.2276,28.487,-194.102,996.13,603.75,2887.5,-446.25,83.6,-76.0,-456.0
348720.2776,26.596,-195.627,994.361,358.75,2555.0,-691.25,85.12,-63.84,-462.08
