TimeStamp,ax,ay,az,gx,gy,gz,mx,my,mz
348763.8776,5.002,-147.315,1005.89,-1478.75,2808.75,-297.5,98.8,-86.64,-487.92
348763.9276,13.054,-154.757,1004.426,-533.75,2756.25,113.75,103.36,-77.52,-484.88
348763.9776,14.274,-149.328,1008.513,1015.0,3246.25,-988.75,106.4,-88.16,-468.16
348764.0276,11.956,-136.396,1002.23,1146.25,3097.5,-1741.25,92.72,-83.6,-481.84
348764.0776,15.494,-136.823,1008.818,113.75,3867.5,-1723.75,97.28,-76.0,-484.88
348764.1276,8.235,-140.056,1009.855,-857.5,3928.75,-1443.75,104.88,-86.64,-481.84
348764.1776,3.721,-140.91,1003.328,1085.0,2975.0,-2703.75,97.28,-80.56,-477.28
348764.2276,3.843,-141.52,1005.646,-332.5,3141.25,-3106.25,95.76,-80.56,-494.0
348764.2776,8.54,-138.775,1005.89,-262.5,2765.0,-2406.25,107.92,-77.52,-497.04
348764.3276,12.871,-138.409,1010.221,-1846.25,2450.0,-971.25,112.48,-85.12,-477.28
348764.3776,16.653,-156.343,1004.243,-1120.0,3333.75,-971.25,110.96,-79.04,-480.32
348764.4276,11.285,-156.587,1001.071,-376.25,3045.0,-1032.5,92.72,-91.2,-471.2
348764.4776,11.529,-140.117,1000.339,1023.75,3115.0,-2808.75,95.76,-79.04,-500.08
348764.5276,9.15,-137.677,1001.62,-761.25,3150.0,-3106.25,104.88,-91.2,-466.64
348764.5776,6.161,-146.705,1009.428,-1496.25,3272.5,-2922.5,100.32,-95.76,-489.44
348764.6276,4.087,-157.197,1010.465,-1137.5,2773.75,-3141.25,88.16,-82.08,-494.0
348764.6776,12.261,-153.537,1008.635,603.75,1977.5,-3167.5,110.96,-89.68,-489.44
348764.7276,18.91,-148.535,1007.171,1058.75,2870.0,-3071.25,92.72,-86.64,-478.8
348764.7776,11.59,-142.923,1003.816,787.5,3622.5,-2730.0,92.72,-98.8,-486.4
348764.8276,10.431,-138.348,1005.28,192.5,4611.25,-4077.5,94.24,-89.68,-472.72
348764.8776,7.259,-147.498,1003.938,883.75,4243.75,-4856.25,101.84,-88.16,-454.48
348764.9276,-0.671,-138.531,1009.123,218.75,3972.5,-7026.25,88.16,-97.28,-478.8
348764.9776,0.793,-157.746,1007.537,1198.75,3150.0,-7560.0,97.28,-83.6,-494.0
348765.0276,8.906,-142.74,1005.463,2791.25,3036.25,-9432.5,104.88,-92.72,-477.28
348765.0776,15.433,-152.805,1006.378,5215.0,4313.75,-9861.25,92.72,-92.72,-480.32
348765.1276,7.747,-114.314,1015.406,3963.75,3850.0,-8671.25,71.44,-92.72,-478.8
348765.1776,12.383,-156.587,1013.698,3010.0,3360.0,-4681.25,104.88,-104.88,-477.28
348765.2276,13.115,-146.4,1011.319,5398.75,3141.25,-4156.25,100.32,-98.8,-478.8
348765.2776,20.862,-124.623,1002.474,5827.5,2528.75,-1986.25,88.16,-97.28,-497.04
348765.3276,15.494,-102.541,1002.047,8268.75,2056.25,-5390.0,100.32,-101.84,-495.52
348765.3776,14.152,-75.152,1010.16,5232.5,1531.25,-7595.0,83.6,-103.36,-472.72
348765.4276,27.206,-103.395,989.298,-2161.25,4480.0,-3360.0,86.64,-112.48,-494.0
348765.4776,-9.211,-98.637,1005.951,3858.75,4935.0,-7638.75,79.04,-114.0,-490.96
348765.5276,-5.612,-101.138,1009.489,-6991.25,4331.25,-7735.0,104.88,-114.0,-486.4
348765.5776,20.069,-123.525,1009.977,-4217.5,437.5,-1487.5,95.76,-95.76,-483.36
348765.6276,26.413,-130.967,1007.293,-3053.75,2012.5,2283.75,85.12,-107.92,-497.04
348765.6776,27.511,-124.501,1007.537,-2301.25,3622.5,4996.25,91.2,-103.36,-490.96
348765.7276,16.714,-130.418,1009.428,-1750.0,3211.25,4856.25,92.72,-98.8,-486.4
348765.7776,20.008,-126.514,1010.16,-1662.5,3141.25,2870.0,95.76,-101.84,-490.96
348765.8276,20.496,-136.884,1007.537,-2345.0,2310.0,1111.25,100.32,-92.72,-484.88
348765.8777,17.69,-134.078,1006.927,-1435.0,1863.75,-848.75,89.68,-98.8,-469.68
348765.9276,21.472,-139.934,1007.72,-1198.75,1750.0,-1312.5,80.56,-98.8,-500.08
348765.9777,21.655,-133.346,1006.561,-472.5,2467.5,-17.5,85.12,-92.72,-483.36
348766.0276,15.372,-128.771,1003.023,-875.0,3080.0,2021.25,95.76,-95.76,-489.44
348766.0776,14.457,-121.695,1005.28,-1435.0,2660.0,2310.0,89.68,-95.76,-487.92
348766.1276,19.825,-126.392,1006.134,-2187.5,3045.0,2318.75,76.0,-104.88,-489.44
348766.1776,22.204,-141.703,1009.428,-2738.75,3088.75,1566.25,100.32,-98.8,-475.76
348766.2276,22.753,-143.655,1007.415,-1435.0,3500.0,805.0,97.28,-92.72,-478.8
348766.2776,15.311,-143.106,1009.306,-1505.0,3850.0,-971.25,92.72,-91.2,-495.52
348766.3276,11.712,-141.825,1006.317,-997.5,3193.75,-1680.0,100.32,-92.72,-484.88
348766.3776,14.457,-145.546,1006.561,-988.75,3596.25,-183.75,92.72,-91.2,-477.28
348766.4276,9.516,-144.997,1005.158,-822.5,4418.75,498.75,83.6,-88.16,-487.92
348766.4776,0.915,-142.984,1009.428,-927.5,3167.5,-490.0,94.24,-91.2,-487.92
348766.5276,13.115,-151.158,1005.28,-1618.75,2765.0,-455.0,101.84,-95.76,-483.36
348766.5776,11.651,-150.67,1005.28,-638.75,3386.25,-700.0,92.72,-92.72,-475.76
348766.6276,11.529,-148.474,1003.511,-70.0,2703.75,-446.25,86.64,-94.24,-487.92
348766.6776,15.189,-148.047,1007.598,-1198.75,3386.25,192.5,94.24,-79.04,-495.52
348766.7276,16.287,-160.674,1004.06,-350.0,3561.25,131.25,98.8,-101.84,-480.32
348766.7776,12.444,-151.89,1003.511,253.75,3281.25,-1015.0,92.72,-86.64,-484.88
348766.8276,11.895,-151.524,1004.792,665.0,3237.5,-1190.0,88.16,-91.2,-481.84
348766.8776,8.662,-144.204,1005.463,743.75,3508.75,-1041.25,104.88,-91.2,-477.28
348766.9276,7.808,-141.947,1006.134,481.25,3333.75,-586.25,83.6,-94.24,-474.24
348766.9776,1.464,-143.045,1005.585,525.0,3053.75,-481.25,92.72,-88.16,-495.52
348767.0276,10.187,-148.291,1007.415,-52.5,2922.5,192.5,95.76,-107.92,-483.36
348767.0776,11.834,-141.947,1004.121,542.5,3167.5,113.75,91.2,-88.16,-472.72
348767.1276,8.357,-142.984,1006.317,-218.75,3491.25,-761.25,91.2,-92.72,-497.04
348767.1776,5.063,-142.557,1004.182,122.5,2668.75,-1233.75,95.76,-91.2,-472.72
348767.2276,7.747,-142.496,1003.023,-682.5,2913.75,-376.25,92.72,-98.8,-474.24
348767.2776,4.819,-141.947,1002.23,-726.25,2800.0,113.75,100.32,-92.72,-489.44
348767.3276,7.015,-142.069,1006.012,-1085.0,2476.25,175.0,92.72,-89.68,-481.84
348767.3776,16.226,-149.145,1005.707,-2117.5,2756.25,52.5,100.32,-95.76,-483.36
348767.4276,15.128,-155.794,1002.108,-1583.75,3106.25,-848.75,98.8,-83.6,-468.16
348767.4776,10.614,-153.232,1005.951,183.75,3316.25,-1723.75,97.28,-103.36,-486.4
348767.5276,14.152,-147.132,1006.5,-455.0,3893.75,-1356.25,112.48,-92.72,-471.2
348767.5776,7.869,-149.328,1003.023,-1513.75,3955.0,-341.25,88.16,-95.76,-483.36
348767.6276,4.087,-150.365,1002.474,-507.5,3482.5,-910.0,95.76,-92.72,-489.44
348767.6776,6.893,-154.574,1002.169,-1417.5,3193.75,-1286.25,103.36,-97.28,-469.68
348767.7276,5.734,-157.258,1005.402,-376.25,3587.5,-1233.75,112.48,-97.28,-477.28
348767.7776,0.854,-157.075,1005.402,-866.25,3115.0,-455.0,86.64,-82.08,-489.44
348767.8276,6.771,-153.842,1004.731,-455.0,2975.0,-962.5,107.92,-89.68,-475.76
348767.8776,7.32,-151.951,1006.683,-1295.0,2642.5,-376.25,101.84,-88.16,-465.12
348767.9276,7.076,-157.014,1005.951,-831.25,3193.75,-70.0,89.68,-77.52,-481.84
348767.9776,1.891,-161.223,1004.67,-612.5,3053.75,-560.0,89.68,-89.68,-486.4
348768.0276,3.294,-157.197,1003.999,-822.5,2441.25,-1277.5,107.92,-88.16,-472.72
348768.0776,11.346,-159.576,1003.877,-402.5,2668.75,-953.75,91.2,-88.16,-484.88
348768.1276,9.028,-161.284,1006.012,-560.0,3290.0,105.0,97.28,-83.6,-489.44
348768.1776,6.466,-162.687,1003.145,-78.75,3132.5,-446.25,97.28,-86.64,-477.28
348768.2276,6.161,-158.6,1003.755,-96.25,2826.25,-857.5,98.8,-88.16,-478.8
348768.2776,2.013,-173.911,1006.866,3990.0,988.75,-1251.25,98.8,-89.68,-503.12
348768.3276,8.845,-153.293,1007.293,3193.75,1715.0,-1951.25,89.68,-85.12,-490.96
348768.3776,19.276,-150.67,1005.707,813.75,2266.25,-1907.5,85.12,-83.6,-474.24
348768.4276,19.032,-148.413,1002.901,253.75,3858.75,-428.75,98.8,-86.64,-483.36
348768.4776,1.403,-147.498,1007.476,280.0,4033.75,-612.5,101.84,-89.68,-480.32
348768.5276,6.893,-151.219,1001.742,-1128.75,2651.25,-1216.25,94.24,-88.16,-480.32
348768.5776,11.163,-154.025,1002.352,-971.25,2948.75,-708.75,89.68,-82.08,-478.8
348768.6276,3.843,-161.772,1002.84,-1260.0,3298.75,-227.5,92.72,-89.68,-492.48
348768.6776,3.233,-162.382,1007.598,-122.5,3045.0,-490.0,103.36,-94.24,-475.76
348768.7276,2.135,-157.075,1003.816,-621.25,2896.25,26.25,92.72,-72.96,-466.64
348768.7776,9.882,-155.367,1004.548,-901.25,2633.75,-253.75,88.16,-88.16,-492.48
348768.8276,9.089,-156.282,1002.901,-813.75,2563.75,-183.75,92.72,-82.08,-475.76
348768.8776,14.945,-160.796,1001.071,-35.0,3893.75,210.0,92.72,-85.12,-481.84
348768.9276,6.344,-161.772,1004.609,-43.75,4567.5,577.5,97.28,-83.6,-484.88
348768.9776,-3.233,-160.247,1002.23,-236.25,3307.5,-131.25,95.76,-85.12,-483.36
348769.0276,1.83,-159.82,1004.548,78.75,2257.5,-936.25,100.32,-86.64,-480.32
348769.0776,9.028,-158.295,1003.206,595.0,2738.75,-533.75,106.4,-77.52,-477.28
348769.1278,5.917,-154.635,1002.962,-1268.75,2913.75,-603.75,101.84,-83.6,-494.0
348769.1776,5.429,-158.6,1001.62,-831.25,2817.5,-735.0,110.96,-83.6,-475.76
348769.2277,3.294,-158.966,1001.986,-936.25,2730.0,-936.25,104.88,-89.68,-481.84
348769.2776,5.185,-160.674,1006.439,-367.5,2170.0,-1111.25,100.32,-97.28,-478.8
348769.3276,10.248,-165.859,1004.792,-201.25,2213.75,-980.0,104.88,-77.52,-475.76
348769.3776,9.638,-158.234,1002.779,805.0,2283.75,-656.25,98.8,-86.64,-480.32
348769.4276,8.296,-154.391,1001.437,358.75,2730.0,-218.75,95.76,-80.56,-466.64
348769.4776,8.479,-164.517,1001.376,-630.0,2948.75,78.75,91.2,-79.04,-484.88
348769.5276,11.224,-160.979,1000.888,-831.25,2966.25,-586.25,100.32,-83.6,-474.24
348769.5776,6.954,-164.151,1003.511,-516.25,3185.0,-700.0,101.84,-86.64,-486.4
348769.6276,4.514,-164.7,1004.06,-315.0,2712.5,-700.0,94.24,-82.08,-484.88
348769.6776,9.394,-167.75,996.191,-481.25,2765.0,-288.75,97.28,-74.48,-477.28
348769.7276,5.673,-153.049,1011.685,-4033.75,2948.75,1347.5,107.92,-92.72,-469.68
348769.7776,8.113,-186.599,1007.11,-297.5,2835.0,1356.25,83.6,-86.64,-484.88
348769.8281,4.148,-160.369,1001.437,1120.0,2703.75,700.0,101.84,-85.12,-483.36
348769.8776,3.416,-163.602,997.96,1312.5,1067.5,-1417.5,98.8,-86.64,-471.2
348769.9276,18.788,-154.513,1001.254,577.5,1645.0,-367.5,89.68,-80.56,-474.24
348769.9776,16.226,-153.72,1000.522,-428.75,2695.0,428.75,117.04,-77.52,-481.84
348770.0276,13.481,-158.783,999.851,-1050.0,2817.5,8.75,94.24,-85.12,-474.24
348770.0776,3.904,-155.794,1004.182,-2065.0,2598.75,-848.75,106.4,-82.08,-489.44
348770.1276,6.71,-163.846,1001.498,-4296.25,1102.5,-341.25,94.24,-85.12,-497.04
348770.1776,13.847,-172.325,1004.487,-2423.75,1618.75,542.5,83.6,-80.56,-483.36
348770.2276,15.494,-177.754,1003.572,-1321.25,2336.25,1557.5,89.68,-89.68,-474.24
348770.2776,17.019,-181.536,1002.718,-743.75,2598.75,647.5,97.28,-76.0,-484.88
348770.3276,10.919,-174.582,1001.437,638.75,2633.75,-726.25,115.52,-85.12,-472.72
348770.3776,18.91,-166.286,999.79,-271.25,3115.0,-638.75,86.64,-82.08,-472.72
348770.4276,14.457,-179.584,998.936,-1137.5,3316.25,-105.0,106.4,-76.0,-481.84
348770.4776,11.895,-176.656,996.923,-201.25,3788.75,-1443.75,88.16,-85.12,-483.36
348770.5276,7.686,-178.059,1000.156,-288.75,3491.25,-2143.75,98.8,-86.64,-472.72
348770.5776,13.542,-175.314,1001.986,621.25,3342.5,-1837.5,94.24,-85.12,-483.36
348770.6276,9.699,-174.216,1002.047,297.5,3508.75,-988.75,94.24,-74.48,-481.84
348770.6776,6.71,-172.935,1003.145,280.0,3211.25,-1041.25,104.88,-82.08,-466.64
348770.7276,12.993,-166.042,1000.705,-376.25,2975.0,-525.0,103.36,-79.04,-474.24
348770.7776,10.553,-174.46,1001.254,-455.0,3500.0,-603.75,79.04,-79.04,-481.84
348770.8276,5.612,-172.996,1002.84,-341.25,3001.25,-1601.25,88.16,-77.52,-475.76
348770.8776,10.187,-171.837,997.899,-892.5,2581.25,-1715.0,95.76,-86.64,-475.76
348770.9276,10.126,-178.547,1001.62,-140.0,2835.0,-586.25,77.52,-80.56,-474.24
348770.9776,9.516,-179.401,1000.766,385.0,2878.75,-341.25,103.36,-86.64,-472.72
348771.0276,12.871,-174.094,1000.4,630.0,2966.25,-568.75,98.8,-80.56,-465.12
348771.0776,10.126,-171.105,998.509,490.0,2852.5,-1163.75,101.84,-79.04,-480.32
348771.1276,12.261,-167.384,999.607,-61.25,2537.5,-1347.5,95.76,-83.6,-477.28
348771.1776,14.152,-165.859,1000.705,-1400.0,3307.5,-1076.25,92.72,-72.96,-475.76
348771.2276,10.065,-177.876,1000.095,-1303.75,3228.75,-2021.25,100.32,-85.12,-477.28
348771.2776,15.738,-179.34,999.851,61.25,2756.25,-1496.25,98.8,-74.48,-494.0
348771.3276,14.274,-169.397,1003.45,-892.5,4103.75,-166.25,109.44,-82.08,-483.36
348771.3776,15.311,-176.534,995.947,-638.75,3447.5,-726.25,91.2,-80.56,-478.8
348771.4276,13.969,-167.018,995.52,-1513.75,5013.75,-2091.25,98.8,-74.48,-487.92
348771.4776,2.257,-182.573,1003.633,-3517.5,4401.25,-2870.0,100.32,-86.64,-484.88
348771.5276,2.867,-192.699,1003.999,-2213.75,3876.25,-2677.5,106.4,-83.6,-480.32
348771.5776,5.185,-188.917,1001.681,-778.75,3972.5,-52.5,86.64,-77.52,-480.32
348771.6276,-5.246,-184.281,1000.034,-560.0,3710.0,-131.25,100.32,-69.92,-484.88
348771.6776,0.61,-182.695,1001.132,-542.5,2423.75,-1207.5,114.0,-94.24,-489.44
348771.7276,6.161,-183.366,999.119,-1163.75,2913.75,-1190.0,100.32,-79.04,-471.2
348771.7776,-2.318,-187.148,998.814,-796.25,2800.0,-962.5,100.32,-79.04,-477.28
348771.8276,2.257,-187.087,998.997,-1540.0,2528.75,-761.25,92.72,-76.0,-480.32
348771.8776,8.662,-192.638,996.374,-892.5,2126.25,-166.25,94.24,-83.6,-474.24
348771.9276,5.795,-193.858,1000.461,-1111.25,2555.0,315.0,101.84,-79.04,-474.24
348771.9776,4.758,-190.442,999.546,-630.0,2686.25,455.0,94.24,-82.08,-463.6
348772.0276,6.466,-197.884,999.79,8.75,2441.25,-402.5,95.76,-82.08,-484.88
348772.0776,9.15,-185.257,995.398,0.0,2152.5,-840.0,92.72,-79.04,-475.76
348772.1276,7.808,-182.878,993.995,-883.75,2266.25,-350.0,88.16,-74.48,-486.4
348772.1776,9.089,-192.333,995.154,-2091.25,2878.75,-490.0,97.28,-74.48,-472.72
348772.2276,14.457,-188.917,994.605,-481.25,2353.75,-358.75,95.76,-82.08,-480.32
348772.2776,4.148,-188.002,1003.206,-1986.25,2266.25,-988.75,101.84,-69.92,-480.32
348772.3276,12.505,-203.74,996.13,-1093.75,2292.5,-673.75,92.72,-74.48,-477.28
348772.3778,17.324,-205.57,997.533,-1321.25,3193.75,-157.5,103.36,-79.04,-486.4
348772.4276,11.041,-199.714,997.167,253.75,2975.0,-350.0,88.16,-68.4,-472.72
348772.4777,7.381,-194.59,995.276,96.25,3036.25,-805.0,97.28,-62.32,-468.16
348772.5276,7.137,-195.871,993.507,-157.5,2861.25,-918.75,104.88,-71.44,-469.68
348772.5784,8.235,-196.786,997.472,-568.75,2922.5,-953.75,95.76,-65.36,-466.64
348772.6276,9.15,-198.25,997.045,-1365.0,2948.75,-140.0,91.2,-65.36,-480.32
348772.6776,6.466,-208.864,999.241,17.5,3080.0,-568.75,85.12,-80.56,-489.44
348772.7276,3.477,-198.433,997.106,17.5,2835.0,-586.25,98.8,-63.84,-469.68
348772.7776,7.503,-198.189,994.544,262.5,2345.0,-805.0,101.84,-62.32,-466.64
348772.8276,18.239,-195.444,993.629,-516.25,2913.75,525.0,100.32,-74.48,-477.28
348772.8776,19.398,-195.261,994.361,-376.25,4471.25,1627.5,118.56,-82.08,-484.88
348772.9276,26.291,-183.061,990.335,-2616.25,5197.5,2397.5,106.4,-77.52,-471.2
348772.9776,0.061,-198.494,986.919,-4900.0,9423.75,5617.5,91.2,-56.24,-483.36
348773.0276,-33.306,-212.402,1002.657,-1478.75,665.0,-2065.0,97.28,-56.24,-478.8
348773.0776,8.723,-211.06,996.923,-1942.5,-498.75,-4086.25,103.36,-82.08,-466.64
348773.1276,10.675,-216.428,995.459,-411.25,2581.25,-2248.75,98.8,-57.76,-477.28
348773.1776,6.893,-210.694,993.751,848.75,2441.25,-1391.25,95.76,-63.84,-471.2
348773.2276,9.272,-202.337,993.69,542.5,3150.0,-560.0,97.28,-66.88,-481.84
348773.2776,-0.549,-211.548,989.481,-630.0,2773.75,-717.5,101.84,-71.44,-477.28
348773.3276,8.418,-211.975,989.542,-962.5,2992.5,-1496.25,94.24,-63.84,-490.96
348773.3776,4.453,-212.219,996.923,-822.5,3823.75,-805.0,98.8,-65.36,-468.16
348773.4276,-3.355,-209.108,993.385,-533.75,2712.5,-1426.25,80.56,-69.92,-456.0
348773.4776,7.808,-215.391,992.897,-971.25,2511.25,-1032.5,91.2,-76.0,-480.32
348773.5276,-0.122,-208.315,997.472,533.75,2817.5,-813.75,95.76,-62.32,-489.44
348773.5776,1.891,-208.437,998.326,131.25,1820.0,-813.75,110.96,-71.44,-459.04
348773.6276,11.285,-207.217,995.093,210.0,2747.5,-96.25,88.16,-63.84,-495.52
348773.6776,-1.586,-220.21,996.069,927.5,2948.75,-1452.5,98.8,-72.96,-465.12
348773.7276,5.368,-212.768,994.239,1216.25,2283.75,-2222.5,100.32,-76.0,-465.12
348773.7776,8.418,-205.936,989.969,1601.25,3316.25,-770.0,86.64,-59.28,-480.32
348773.8276,5.673,-205.021,990.274,1006.25,3351.25,-682.5,97.28,-69.92,-475.76
348773.8776,7.442,-204.655,991.616,778.75,2642.5,-1032.5,103.36,-72.96,-465.12
348773.9276,6.039,-197.579,994.483,936.25,3132.5,-770.0,95.76,-69.92,-480.32
348773.9776,4.514,-206.18,995.093,-26.25,3010.0,-1093.75,98.8,-82.08,-480.32
348774.0276,5.612,-206.058,995.459,612.5,2642.5,-1277.5,101.84,-66.88,-469.68
348774.0776,2.745,-206.119,992.287,1391.25,2660.0,-953.75,91.2,-74.48,-478.8
348774.1276,6.588,-194.224,998.753,980.0,2843.75,-367.5,95.76,-72.96,-481.84
348774.1776,12.078,-204.167,989.359,-866.25,2625.0,8.75,83.6,-62.32,-468.16
348774.2276,8.235,-210.877,993.202,918.75,3325.0,-831.25,97.28,-62.32,-472.72
348774.2776,0.61,-205.875,996.496,560.0,2826.25,-2100.0,92.72,-74.48,-478.8
348774.3276,3.233,-204.838,996.008,1102.5,2598.75,-1408.75,95.76,-69.92,-475.76
348774.3776,10.919,-196.054,992.714,280.0,2143.75,-1233.75,112.48,-71.44,-468.16
348774.4276,12.627,-199.897,994.117,481.25,2485.0,-1137.5,80.56,-68.4,-481.84
348774.4776,12.932,-193.126,995.093,-525.0,3088.75,-183.75,104.88,-65.36,-469.68
348774.5276,5.978,-204.228,996.984,306.25,3613.75,-638.75,97.28,-74.48,-475.76
348774.5776,8.662,-196.237,997.045,-17.5,3342.5,-988.75,95.76,-76.0,-468.16
348774.6276,6.832,-202.642,996.557,-43.75,3141.25,-971.25,94.24,-69.92,-463.6
348774.6776,7.198,-198.006,994.91,8.75,2957.5,-621.25,98.8,-72.96,-475.76
348774.7276,9.089,-199.348,993.08,35.0,3360.0,122.5,103.36,-72.96,-460.56
348774.7776,3.477,-201.056,996.191,-411.25,2782.5,-323.75,89.68,-72.96,-477.28
348774.8276,6.222,-198.128,993.446,-525.0,2887.5,-901.25,86.64,-51.68,-483.36
348774.8776,6.1,-210.511,996.191,-262.5,3080.0,-717.5,97.28,-82.08,-471.2
348774.9276,2.318,-207.705,997.411,848.75,3027.5,-1242.5,80.56,-79.04,-472.72
348774.9776,8.052,-199.714,995.886,2143.75,1356.25,-1671.25,88.16,-68.4,-478.8
348775.0276,11.102,-197.579,995.825,516.25,3290.0,717.5,106.4,-66.88,-471.2
348775.0776,3.782,-201.239,996.496,822.5,2493.75,271.25,95.76,-74.48,-475.76
348775.1276,7.32,-193.065,992.653,516.25,2913.75,-638.75,101.84,-72.96,-486.4
348775.1776,9.211,-192.394,994.117,-166.25,1951.25,-2765.0,95.76,-72.96,-472.72
348775.2276,17.385,-194.956,992.348,-481.25,3255.0,-1881.25,94.24,-62.32,-475.76
348775.2776,7.991,-201.422,997.472,910.0,3377.5,-866.25,107.92,-69.92,-483.36
348775.3276,9.15,-198.677,998.875,1128.75,2572.5,-280.0,88.16,-79.04,-475.76
348775.3776,12.383,-193.553,997.472,752.5,3307.5,1172.5,101.84,-74.48,-469.68
348775.4276,10.919,-196.786,995.581,875.0,3220.0,376.25,88.16,-71.44,-462.08
348775.4776,11.468,-188.49,994.849,376.25,3701.25,-288.75,98.8,-72.96,-463.6
348775.5276,3.355,-188.612,997.106,-647.5,3447.5,-1146.25,103.36,-76.0,-469.68
348775.5776,0.0,-189.649,992.47,-1758.75,3027.5,-1968.75,97.28,-72.96,-483.36
348775.6276,1.159,-206.973,995.459,-1995.0,1855.0,-2073.75,104.88,-60.8,-477.28
348775.6776,5.673,-209.596,996.862,-1032.5,1820.0,-1076.25,94.24,-63.84,-472.72
348775.7276,9.699,-207.583,999.79,533.75,1225.0,-385.0,85.12,-66.88,-462.08
348775.7776,19.398,-203.252,993.751,1365.0,1863.75,-148.75,92.72,-65.36,-472.72
348775.8277,18.178,-197.03,993.69,1435.0,2625.0,52.5,100.32,-65.36,-472.72
348775.8776,18.971,-185.135,995.459,1006.25,3325.0,-1015.0,101.84,-68.4,-468.16
348775.9277,15.555,-183.0,998.57,-883.75,3823.75,-743.75,83.6,-65.36,-472.72
348775.9776,11.224,-198.067,994.483,-866.25,3981.25,-1085.0,92.72,-72.96,-477.28
348776.0276,6.527,-200.995,995.337,-1163.75,3771.25,-1715.0,89.68,-68.4,-468.16
348776.0776,8.479,-203.252,998.143,-376.25,3596.25,-1198.75,86.64,-82.08,-472.72
348776.1276,5.185,-196.481,999.546,227.5,2975.0,-656.25,101.84,-69.92,-469.68
348776.1776,2.318,-196.664,994.727,420.0,2388.75,-1863.75,103.36,-76.0,-477.28
348776.2276,19.154,-194.712,994.483,-507.5,2100.0,-2187.5,89.68,-76.0,-477.28
348776.2776,12.444,-196.847,996.313,-1233.75,2983.75,-805.0,92.72,-76.0,-478.8
348776.3276,15.372,-205.021,995.154,-262.5,2747.5,-568.75,103.36,-66.88,-475.76
348776.3776,8.906,-201.239,994.117,218.75,3386.25,-105.0,89.68,-72.96,-469.68
348776.4276,8.174,-200.446,998.509,437.5,2747.5,-630.0,98.8,-66.88,-474.24
348776.4776,17.751,-196.42,993.934,183.75,3325.0,-411.25,98.8,-76.0,-474.24
348776.5276,9.638,-195.017,995.947,-332.5,3517.5,-87.5,101.84,-66.88,-477.28
348776.5776,9.76,-200.69,995.581,-192.5,2940.0,-953.75,95.76,-65.36,-475.76
348776.6276,11.773,-194.834,998.448,-201.25,2817.5,-560.0,101.84,-59.28,-472.72
348776.6776,10.614,-199.653,997.655,-271.25,2922.5,-516.25,97.28,-63.84,-471.2
348776.7276,13.481,-198.921,994.91,113.75,2948.75,-577.5,100.32,-68.4,-478.8
348776.7776,9.638,-200.019,994.91,131.25,2843.75,61.25,95.76,-59.28,-478.8
348776.8276,7.503,-191.479,998.631,-288.75,2966.25,-472.5,98.8,-71.44,-484.88
348776.8776,15.677,-207.949,991.982,-901.25,2607.5,-297.5,86.64,-79.04,-483.36
348776.9276,11.407,-200.629,994.178,-1015.0,3316.25,-910.0,83.6,-66.88,-483.36
348776.9776,12.505,-208.986,998.448,-463.75,3027.5,-1356.25,95.76,-74.48,-480.32
348777.0276,13.969,-207.705,997.411,516.25,3106.25,-988.75,94.24,-68.4,-472.72
348777.0776,1.647,-204.899,998.509,-437.5,2852.5,-43.75,97.28,-80.56,-478.8
348777.1276,12.078,-198.372,994.056,113.75,2047.5,-1041.25,101.84,-69.92,-477.28
348777.1776,16.165,-198.616,996.984,-446.25,3167.5,551.25,94.24,-74.48,-471.2
348777.2276,7.564,-203.923,996.984,17.5,2633.75,-393.75,92.72,-77.52,-469.68
348777.2776,11.346,-203.252,995.154,61.25,2791.25,-997.5,98.8,-72.96,-492.48
348777.3276,13.786,-203.557,994.605,-26.25,2870.0,-761.25,98.8,-69.92,-474.24
348777.3776,12.139,-198.982,993.08,262.5,2957.5,-481.25,82.08,-79.04,-475.76
348777.4276,12.627,-204.899,995.947,-113.75,2992.5,-218.75,101.84,-69.92,-478.8
348777.4776,8.662,-200.934,994.971,-210.0,2948.75,-568.75,92.72,-72.96,-478.8
348777.5276,8.845,-201.422,997.35,-446.25,2773.75,-1023.75,107.92,-69.92,-474.24
348777.5776,10.187,-201.971,994.117,-463.75,3123.75,-595.0,91.2,-62.32,-481.84
348777.6276,10.614,-206.912,997.411,-157.5,2940.0,-183.75,91.2,-59.28,-477.28
348777.6776,14.03,-203.435,995.032,-306.25,2852.5,-542.5,95.76,-63.84,-474.24
348777.7276,8.723,-200.873,993.324,490.0,2878.75,-262.5,94.24,-80.56,-462.08
348777.7776,15.616,-193.858,995.764,-262.5,3010.0,-280.0,97.28,-74.48,-474.24
348777.8276,9.943,-210.755,996.557,-988.75,3228.75,-350.0,103.36,-68.4,-477.28
348777.8776,14.152,-220.271,996.13,516.25,3508.75,-962.5,86.64,-65.36,-480.32
348777.9276,7.625,-204.045,998.997,2791.25,3710.0,-1898.75,95.76,-63.84,-474.24
348777.9776,5.124,-198.982,995.886,1190.0,3491.25,-1680.0,104.88,-71.44,-460.56
348778.0276,5.612,-192.089,993.446,848.75,3097.5,-1295.0,120.08,-83.6,-460.56
348778.0776,6.527,-191.235,996.252,735.0,2826.25,-997.5,94.24,-80.56,-475.76
348778.1276,6.771,-189.466,993.934,-463.75,2563.75,-288.75,95.76,-80.56,-478.8
348778.1776,20.008,-185.135,992.348,-2266.25,2318.75,385.0,101.84,-62.32,-472.72
348778.2276,7.625,-208.254,997.533,-2502.5,4270.0,-1960.0,98.8,-65.36,-463.6
348778.2776,2.745,-205.692,998.936,-953.75,3132.5,-2651.25,85.12,-60.8,-484.88
348778.3276,5.917,-208.193,996.984,-393.75,3167.5,-323.75,100.32,-82.08,-472.72
348778.3776,7.442,-203.374,996.069,262.5,3141.25,542.5,98.8,-74.48,-469.68
348778.4276,5.49,-201.788,991.677,17.5,2450.0,-26.25,89.68,-65.36,-475.76
348778.4776,10.248,-199.104,991.311,-341.25,2493.75,-945.0,101.84,-72.96,-471.2
348778.5276,13.542,-196.908,991.067,-1286.25,2686.25,-945.0,100.32,-77.52,-469.68
348778.5776,14.213,-212.402,996.313,-1890.0,3360.0,-367.5,83.6,-74.48,-481.84
348778.6276,8.235,-219.051,998.387,-1137.5,3640.0,-1207.5,94.24,-74.48,-474.24
348778.6776,1.281,-215.574,995.825,682.5,2966.25,-1338.75,104.88,-72.96,-459.04
348778.7276,10.858,-203.618,993.812,883.75,3237.5,-446.25,85.12,-60.8,-475.76
348778.7776,2.623,-207.217,996.679,-210.0,2765.0,175.0,95.76,-68.4,-472.72
348778.8276,8.479,-212.768,994.056,358.75,2616.25,-927.5,109.44,-65.36,-480.32
348778.8776,11.346,-211.731,994.666,787.5,2992.5,-1111.25,89.68,-60.8,-480.32
348778.9276,7.991,-206.18,995.459,1023.75,3123.75,-875.0,85.12,-72.96,-475.76
348778.9776,8.479,-204.777,995.215,1050.0,2983.75,-726.25,98.8,-76.0,-463.6
348779.0276,9.089,-200.568,991.25,525.0,3403.75,-1146.25,100.32,-82.08,-471.2
348779.0776,9.882,-197.335,994.666,455.0,2817.5,-1032.5,101.84,-82.08,-484.88
348779.1276,12.627,-199.897,996.435,140.0,3290.0,-586.25,92.72,-76.0,-481.84
348779.1778,4.209,-198.128,996.618,-52.5,3438.75,-813.75,89.68,-66.88,-471.2
348779.2276,2.013,-202.032,993.873,-148.75,2747.5,-1233.75,95.76,-74.48,-484.88
348779.2777,8.845,-198.311,994.361,-236.25,2948.75,-525.0,101.84,-66.88,-472.72
348779.3276,7.747,-203.252,994.91,-708.75,3298.75,-78.75,100.32,-68.4,-468.16
348779.3777,8.784,-203.496,993.202,-595.0,3053.75,-227.5,114.0,-72.96,-471.2
348779.4276,5.917,-206.607,994.544,-420.0,3158.75,-560.0,97.28,-69.92,-468.16
348779.4776,4.758,-204.96,995.154,-411.25,2730.0,-682.5,89.68,-79.04,-475.76
348779.5276,9.699,-211.304,993.141,96.25,2660.0,-253.75,89.68,-71.44,-469.68
348779.5776,3.965,-211.243,994.666,840.0,2861.25,-148.75,95.76,-68.4,-471.2
348779.6276,11.468,-209.962,997.594,2301.25,1863.75,-953.75,101.84,-68.4,-477.28
348779.6776,12.688,-197.152,997.167,805.0,3797.5,1846.25,114.0,-66.88,-475.76
348779.7276,-2.623,-200.934,996.13,411.25,2861.25,621.25,94.24,-77.52,-471.2
348779.7776,7.503,-201.666,993.873,-822.5,2441.25,-1557.5,83.6,-72.96,-480.32
348779.8276,7.747,-204.106,994.727,-533.75,3403.75,-717.5,98.8,-65.36,-477.28
348779.8776,1.769,-204.96,995.642,-1181.25,3167.5,-988.75,98.8,-65.36,-465.12
348779.9276,4.819,-202.642,995.032,122.5,2686.25,-1023.75,86.64,-71.44,-478.8
348779.9776,7.625,-203.801,995.825,-630.0,2773.75,-936.25,104.88,-68.4,-480.32
348780.0276,12.383,-207.278,996.435,-393.75,2765.0,-463.75,106.4,-72.96,-469.68
348780.0776,7.869,-205.814,995.581,-420.0,3298.75,-647.5,89.68,-69.92,-475.76
348780.1276,4.453,-203.13,993.812,-420.0,2878.75,-1312.5,92.72,-72.96,-480.32
348780.1776,7.381,-205.692,991.555,-43.75,2843.75,-568.75,104.88,-76.0,-462.08
348780.2276,7.015,-205.692,993.446,-148.75,2747.5,-568.75,91.2,-69.92,-460.56
348780.2776,11.529,-206.729,994.788,-17.5,2703.75,-656.25,95.76,-57.76,-478.8
348780.3276,12.688,-202.825,995.642,-516.25,3403.75,-533.75,110.96,-63.84,-483.36
348780.3776,2.44,-207.278,996.374,175.0,2721.25,-1863.75,104.88,-69.92,-471.2
348780.4276,10.675,-207.339,995.947,-831.25,2878.75,-1058.75,97.28,-69.92,-481.84
348780.4776,7.564,-209.291,994.91,-358.75,3465.0,-551.25,97.28,-71.44,-483.36
348780.5276,4.209,-210.999,994.483,-8.75,2686.25,-770.0,107.92,-71.44,-469.68
348780.5776,10.431,-204.106,996.008,568.75,3036.25,-787.5,88.16,-71.44,-477.28
348780.6276,3.111,-210.511,995.337,-1050.0,2826.25,-271.25,104.88,-66.88,-481.84
348780.6776,8.906,-212.524,993.446,-262.5,2817.5,-1067.5,117.04,-76.0,-477.28
348780.7276,8.906,-212.89,992.958,-175.0,3255.0,-708.75,97.28,-65.36,-475.76
348780.7776,5.063,-209.84,995.398,35.0,3158.75,-551.25,92.72,-68.4,-468.16
348780.8276,5.673,-211.609,994.91,-157.5,2800.0,-586.25,104.88,-76.0,-469.68
348780.8776,6.771,-205.265,994.605,525.0,3010.0,-945.0,92.72,-66.88,-477.28
348780.9276,5.246,-207.034,996.252,-350.0,2528.75,-175.0,98.8,-69.92,-475.76
348780.9776,7.381,-208.925,995.337,-245.0,2712.5,-236.25,104.88,-63.84,-474.24
348781.0276,6.954,-207.278,996.191,271.25,2712.5,-875.0,92.72,-71.44,-474.24
348781.0776,6.405,-207.217,991.433,341.25,2677.5,-1216.25,95.76,-65.36,-480.32
348781.1276,8.784,-208.376,991.616,-175.0,2581.25,-971.25,89.68,-72.96,-484.88
348781.1776,8.296,-210.389,994.483,227.5,2957.5,-122.5,104.88,-53.2,-465.12
348781.2276,6.71,-206.668,998.265,166.25,2896.25,-113.75,98.8,-66.88,-466.64
348781.2776,5.978,-210.877,995.52,455.0,2826.25,-945.0,98.8,-65.36,-474.24
348781.3276,11.773,-205.936,993.995,385.0,2712.5,-910.0,100.32,-60.8,-471.2
348781.3776,12.871,-212.89,997.899,-490.0,3202.5,-507.5,91.2,-76.0,-481.84
348781.4276,10.919,-215.574,994.666,927.5,3631.25,-586.25,95.76,-68.4,-481.84
348781.4776,5.124,-206.79,996.008,1898.75,4261.25,-210.0,100.32,-65.36,-475.76
348781.5276,-6.344,-197.03,994.117,761.25,2878.75,-1155.0,104.88,-71.44,-468.16
348781.5776,4.575,-203.74,988.139,463.75,2318.75,-1050.0,83.6,-72.96,-471.2
348781.6276,7.869,-199.775,992.714,-35.0,2738.75,-455.0,97.28,-65.36,-474.24
348781.6776,4.697,-205.997,995.337,-306.25,2826.25,-297.5,107.92,-74.48,-471.2
348781.7276,4.453,-208.559,992.897,-218.75,2756.25,-883.75,83.6,-79.04,-471.2
348781.7776,9.516,-204.228,996.923,778.75,2773.75,-603.75,94.24,-71.44,-486.4
348781.8276,5.734,-199.531,997.838,446.25,2773.75,-612.5,112.48,-83.6,-465.12
348781.8776,13.054,-199.958,996.984,8.75,2966.25,-638.75,95.76,-76.0,-460.56
348781.9276,8.662,-202.398,994.117,61.25,3561.25,-717.5,89.68,-65.36,-472.72
348781.9776,4.087,-201.727,995.093,78.75,2528.75,-1592.5,94.24,-63.84,-471.2
348782.0276,10.309,-198.311,992.531,-148.75,2756.25,-796.25,114.0,-69.92,-471.2
348782.0776,6.161,-201.422,994.91,-490.0,2721.25,-192.5,92.72,-71.44,-474.24
348782.1276,8.967,-205.387,994.361,-752.5,2826.25,-43.75,94.24,-72.96,-469.68
348782.1776,6.832,-210.084,998.57,96.25,2870.0,-428.75,107.92,-72.96,-466.64
348782.2276,10.553,-210.023,994.91,-376.25,2651.25,-735.0,106.4,-74.48,-460.56
348782.2776,9.394,-210.023,994.056,1163.75,3351.25,-1050.0,97.28,-72.96,-478.8
348782.3276,10.187,-197.701,995.581,1146.25,3088.75,-647.5,86.64,-66.88,-469.68
348782.3776,3.538,-192.882,995.52,297.5,3456.25,-910.0,115.52,-63.84,-475.76
348782.4276,6.039,-203.374,991.311,-131.25,2931.25,-752.5,95.76,-76.0,-475.76
348782.4776,8.113,-198.189,992.287,-673.75,2922.5,-1172.5,95.76,-74.48,-469.68
348782.5278,6.344,-211.487,997.838,-78.75,2966.25,-682.5,92.72,-69.92,-474.24
348782.5776,2.196,-205.936,996.679,262.5,2896.25,-638.75,91.2,-72.96,-472.72
348782.6277,9.211,-209.169,997.655,848.75,2616.25,-700.0,98.8,-66.88,-477.28
348782.6776,8.296,-197.762,994.3,498.75,2756.25,-840.0,100.32,-62.32,-478.8
348782.7277,11.834,-198.982,997.106,78.75,2966.25,8.75,98.8,-74.48,-469.68
348782.7776,11.651,-199.226,993.446,43.75,3132.5,-393.75,97.28,-66.88,-460.56
348782.8276,8.235,-199.165,994.971,-87.5,3001.25,-1233.75,98.8,-79.04,-469.68
348782.8776,10.37,-200.873,994.971,-183.75,2765.0,-1242.5,107.92,-69.92,-474.24
348782.9276,7.503,-203.008,992.775,-297.5,3001.25,-630.0,92.72,-65.36,-484.88
348782.9776,7.93,-200.08,994.971,-350.0,3027.5,-218.75,92.72,-68.4,-483.36
348783.0276,7.808,-201.727,994.117,-1190.0,2835.0,-70.0,88.16,-65.36,-462.08
348783.0776,7.747,-210.206,997.777,-210.0,3132.5,-927.5,110.96,-69.92,-468.16
348783.1276,7.747,-205.875,997.228,498.75,2913.75,-1207.5,82.08,-66.88,-478.8
348783.1776,11.163,-200.873,995.215,437.5,3438.75,-1216.25,98.8,-80.56,-475.76
348783.2276,7.869,-205.814,997.716,-612.5,3508.75,-472.5,104.88,-71.44,-477.28
348783.2776,6.344,-206.241,994.3,332.5,3386.25,-726.25,88.16,-69.92,-474.24
348783.3276,3.599,-206.79,997.289,78.75,2905.0,-1006.25,91.2,-72.96,-486.4
348783.3776,6.405,-205.814,995.154,323.75,3115.0,-866.25,106.4,-71.44,-480.32
348783.4276,5.978,-202.093,995.093,525.0,3071.25,-638.75,104.88,-66.88,-477.28
348783.4776,3.538,-202.764,995.215,542.5,2555.0,-1636.25,88.16,-65.36,-474.24
348783.5276,8.052,-197.03,995.337,577.5,2572.5,-1172.5,88.16,-74.48,-471.2
348783.5776,7.32,-201.3,994.3,-87.5,3395.0,323.75,98.8,-69.92,-472.72
348783.6276,7.503,-199.287,993.629,245.0,2686.25,-875.0,88.16,-71.44,-480.32
348783.6776,8.113,-197.823,993.934,-481.25,3001.25,-1347.5,100.32,-69.92,-466.64
348783.7276,8.418,-201.727,994.788,-726.25,3132.5,-402.5,100.32,-72.96,-466.64
348783.7776,3.355,-203.252,996.862,-481.25,3141.25,-87.5,107.92,-66.88,-463.6
348783.8276,5.429,-204.594,995.154,-87.5,2835.0,-341.25,86.64,-69.92,-475.76
348783.8776,7.686,-203.374,996.679,-883.75,2730.0,-682.5,98.8,-69.92,-477.28
348783.9276,7.747,-206.241,992.958,-297.5,3132.5,-630.0,97.28,-68.4,-465.12
348783.9776,6.588,-206.973,993.08,131.25,3010.0,-1023.75,91.2,-72.96,-468.16
348784.0276,7.564,-198.799,993.995,367.5,2957.5,-840.0,110.96,-57.76,-466.64
348784.0776,3.233,-202.154,996.313,-1592.5,3692.5,-472.5,94.24,-71.44,-478.8
348784.1276,3.965,-207.644,993.324,236.25,2975.0,-1058.75,94.24,-72.96,-471.2
348784.1776,4.392,-210.633,992.531,-245.0,2940.0,-1015.0,92.72,-76.0,-477.28
348784.2276,5.673,-206.424,994.971,297.5,3001.25,-411.25,94.24,-69.92,-471.2
348784.2776,2.806,-205.448,994.422,262.5,2878.75,-358.75,89.68,-74.48,-466.64
348784.3276,7.015,-202.52,991.677,857.5,2668.75,-945.0,82.08,-71.44,-480.32
348784.3776,8.296,-201.483,993.812,140.0,3377.5,-945.0,106.4,-68.4,-468.16
348784.4276,1.83,-199.897,996.74,-43.75,3333.75,-525.0,104.88,-82.08,-465.12
348784.4776,4.087,-206.546,995.337,218.75,2948.75,-805.0,91.2,-69.92,-486.4
348784.5276,1.525,-202.337,993.934,-236.25,3027.5,-805.0,100.32,-77.52,-483.36
348784.5776,4.941,-202.215,992.348,-140.0,2668.75,-813.75,97.28,-72.96,-456.0
348784.6276,6.344,-205.997,994.361,-183.75,2878.75,-437.5,97.28,-77.52,-475.76
348784.6776,5.551,-201.788,994.117,-525.0,3062.5,17.5,103.36,-76.0,-460.56
348784.7276,9.699,-205.814,994.605,-131.25,2782.5,-551.25,107.92,-65.36,-466.64
348784.7776,9.028,-206.668,992.043,-52.5,3150.0,-901.25,83.6,-65.36,-471.2
348784.8276,4.27,-208.803,996.435,-218.75,3036.25,-1137.5,91.2,-56.24,-471.2
348784.8776,3.721,-210.145,994.544,306.25,2590.0,-1050.0,110.96,-69.92,-484.88
348784.9276,1.708,-206.18,994.3,717.5,2782.5,-315.0,101.84,-66.88,-460.56
348784.9776,6.405,-193.919,994.239,638.75,2773.75,-743.75,91.2,-74.48,-475.76
348785.0276,5.368,-202.398,997.106,-1470.0,2791.25,-411.25,101.84,-63.84,-474.24
348785.0776,8.174,-208.254,994.3,-192.5,3010.0,-507.5,106.4,-76.0,-468.16
348785.1276,5.856,-209.596,994.239,201.25,3045.0,-1120.0,94.24,-69.92,-471.2
348785.1776,9.394,-206.912,996.435,796.25,3141.25,-831.25,91.2,-57.76,-478.8
348785.2276,0.61,-204.472,994.544,612.5,2765.0,-551.25,98.8,-69.92,-466.64
348785.2776,3.416,-200.141,993.263,848.75,2432.5,-1041.25,94.24,-76.0,-475.76
348785.3276,8.052,-200.507,994.849,-437.5,2712.5,-761.25,104.88,-69.92,-472.72
348785.3776,8.601,-205.814,996.496,-166.25,2686.25,-52.5,98.8,-74.48,-480.32
348785.4276,21.045,-207.156,995.642,323.75,4025.0,-78.75,83.6,-56.24,-477.28
348785.4776,1.586,-203.252,994.544,236.25,4016.25,-1881.25,92.72,-72.96,-494.0
348785.5276,-0.427,-203.618,996.069,385.0,3780.0,-2345.0,98.8,-69.92,-460.56
348785.5776,-3.416,-198.738,995.276,61.25,2913.75,-1128.75,109.44,-82.08,-481.84
348785.6276,1.647,-203.801,993.995,-245.0,3237.5,420.0,94.24,-66.88,-471.2
348785.6776,-1.159,-203.496,993.995,-61.25,2502.5,385.0,120.08,-71.44,-471.2
348785.7276,3.111,-203.618,995.093,210.0,1811.25,-210.0,97.28,-72.96,-472.72
348785.7776,13.176,-208.071,994.666,-288.75,3316.25,96.25,94.24,-62.32,-472.72
348785.8276,2.318,-204.96,996.435,857.5,3797.5,-1417.5,85.12,-77.52,-498.56
348785.8778,-0.671,-198.067,994.239,875.0,2861.25,-2476.25,104.88,-79.04,-472.72
348785.9276,2.684,-193.675,996.496,-262.5,3893.75,-1776.25,98.8,-86.64,-475.76
348785.9777,-5.429,-207.339,997.228,-1487.5,3360.0,-455.0,91.2,-62.32,-477.28
348786.0276,-3.965,-209.291,995.764,-183.75,2458.75,-1146.25,94.24,-82.08,-462.08
348786.0777,2.135,-210.755,997.045,358.75,2458.75,-656.25,104.88,-71.44,-466.64
348786.1276,6.405,-206.363,996.374,848.75,2502.5,-402.5,92.72,-71.44,-483.36
348786.1776,4.819,-204.96,995.459,131.25,2432.5,-586.25,103.36,-63.84,-477.28
348786.2276,4.392,-199.348,994.422,498.75,2555.0,-1120.0,98.8,-72.96,-474.24
348786.2776,8.906,-203.008,996.618,866.25,3237.5,96.25,97.28,-60.8,-472.72
348786.3276,0.427,-202.764,996.923,1233.75,3027.5,-735.0,118.56,-66.88,-465.12
348786.3776,0.0,-201.3,997.472,1347.5,2590.0,-1627.5,94.24,-69.92,-474.24
348786.4276,1.708,-197.213,991.799,1391.25,2747.5,-1163.75,104.88,-71.44,-484.88
348786.4776,3.111,-194.163,994.056,953.75,2651.25,-323.75,112.48,-65.36,-475.76
348786.5276,7.625,-196.969,995.215,813.75,2388.75,455.0,95.76,-69.92,-474.24
348786.5776,5.49,-197.03,994.727,-420.0,2738.75,-157.5,89.68,-80.56,-478.8
348786.6276,5.673,-196.054,995.764,157.5,2345.0,-1067.5,89.68,-82.08,-474.24
348786.6776,8.357,-198.921,998.326,-280.0,3053.75,-962.5,98.8,-69.92,-469.68
348786.7276,4.758,-200.324,998.326,577.5,3115.0,-1452.5,92.72,-77.52,-468.16
348786.7776,6.588,-191.601,994.971,647.5,1881.25,-1190.0,98.8,-60.8,-481.84
348786.8276,11.529,-190.198,997.167,-17.5,3333.75,43.75,114.0,-77.52,-477.28
348786.8776,3.66,-198.189,994.91,-201.25,3316.25,-227.5,100.32,-65.36,-469.68
348786.9276,7.32,-192.943,993.751,-1303.75,3202.5,-1382.5,95.76,-77.52,-483.36
348786.9776,2.562,-203.496,998.509,-122.5,3176.25,-770.0,103.36,-77.52,-474.24
348787.0276,1.952,-198.311,996.13,-236.25,2213.75,-1627.5,118.56,-69.92,-474.24
348787.0776,13.298,-198.494,995.764,-43.75,2975.0,-568.75,89.68,-62.32,-472.72
348787.1276,0.854,-195.322,998.875,140.0,3421.25,297.5,107.92,-79.04,-474.24
348787.1776,4.392,-191.113,996.374,-43.75,2222.5,-61.25,94.24,-66.88,-474.24
348787.2276,14.152,-193.736,997.838,-280.0,3211.25,43.75,85.12,-72.96,-478.8
348787.2776,1.708,-196.115,994.971,-262.5,3281.25,-927.5,91.2,-71.44,-478.8
348787.3276,3.965,-195.139,995.459,-568.75,2992.5,-1846.25,94.24,-69.92,-469.68
348787.3776,10.248,-197.396,994.3,-735.0,3342.5,-1006.25,94.24,-77.52,-480.32
348787.4276,1.891,-200.385,995.581,-988.75,3263.75,-490.0,104.88,-77.52,-478.8
348787.4776,1.952,-204.777,997.167,-778.75,3001.25,-1067.5,104.88,-69.92,-472.72
348787.5276,3.904,-200.934,999.79,-472.5,2861.25,-1023.75,88.16,-63.84,-477.28
348787.5776,4.392,-205.936,997.472,-402.5,2878.75,-743.75,91.2,-71.44,-475.76
348787.6276,1.464,-202.459,996.984,87.5,2913.75,-1102.5,104.88,-69.92,-480.32
348787.6776,6.71,-197.762,992.409,796.25,3045.0,-507.5,106.4,-79.04,-472.72
348787.7276,1.098,-192.638,998.448,-26.25,3062.5,-603.75,92.72,-65.36,-483.36
348787.7776,6.893,-204.106,992.47,-507.5,2808.75,-568.75,106.4,-65.36,-466.64
348787.8276,4.209,-202.642,994.91,-708.75,3473.75,-157.5,97.28,-68.4,-465.12
348787.8776,1.342,-203.984,998.814,481.25,2808.75,-936.25,103.36,-63.84,-486.4
348787.9276,4.27,-200.629,993.751,428.75,3106.25,-490.0,86.64,-71.44,-483.36
348787.9776,1.891,-200.69,997.289,472.5,3018.75,-140.0,114.0,-77.52,-472.72
348788.0276,-0.427,-193.309,996.801,-175.0,2843.75,-630.0,97.28,-68.4,-459.04
348788.0776,2.989,-195.2,995.886,-288.75,2826.25,-297.5,101.84,-76.0,-463.6
348788.1276,2.44,-203.862,994.971,-682.5,2896.25,-402.5,100.32,-76.0,-481.84
348788.1776,2.623,-203.923,997.655,87.5,2668.75,-1417.5,86.64,-68.4,-474.24
348788.2276,3.721,-201.422,996.008,297.5,2572.5,-1330.0,91.2,-66.88,-480.32
348788.2776,6.1,-199.775,993.08,-245.0,3036.25,-402.5,106.4,-71.44,-459.04
348788.3276,3.233,-200.446,994.727,-96.25,3290.0,140.0,103.36,-71.44,-471.2
348788.3776,2.196,-198.86,997.411,-525.0,2870.0,-498.75,103.36,-72.96,-474.24
348788.4276,-0.427,-201.483,995.703,-367.5,2616.25,-1338.75,101.84,-69.92,-484.88
348788.4776,6.954,-205.509,994.605,218.75,2581.25,-472.5,121.6,-74.48,-481.84
348788.5276,6.527,-198.616,996.862,481.25,2703.75,-280.0,103.36,-72.96,-474.24
348788.5776,7.137,-194.529,991.494,-568.75,3377.5,542.5,104.88,-68.4,-484.88
348788.6276,-1.22,-195.993,996.923,227.5,2957.5,-682.5,106.4,-65.36,-469.68
348788.6776,0.244,-197.396,997.838,-2021.25,2336.25,-1207.5,104.88,-80.56,-474.24
348788.7276,8.845,-211.365,992.592,-218.75,2835.0,-420.0,97.28,-77.52,-486.4
348788.7776,1.708,-213.988,996.679,542.5,2756.25,-1093.75,97.28,-72.96,-471.2
348788.8276,-2.562,-206.546,998.997,901.25,1767.5,-1898.75,110.96,-74.48,-469.68
348788.8776,7.503,-208.803,992.653,1303.75,1785.0,166.25,100.32,-71.44,-468.16
348788.9276,6.405,-201.178,990.884,1837.5,2231.25,210.0,95.76,-76.0,-478.8
348788.9776,11.224,-197.335,996.313,481.25,2073.75,-848.75,95.76,-80.56,-480.32
348789.0276,12.2,-200.934,997.35,813.75,3211.25,-840.0,103.36,-63.84,-474.24
348789.0776,5.185,-199.47,995.581,927.5,2800.0,-1496.25,86.64,-77.52,-478.8
348789.1278,9.394,-195.566,995.276,918.75,2695.0,-1338.75,92.72,-68.4,-480.32
348789.1776,6.71,-196.786,996.313,743.75,2835.0,-901.25,106.4,-79.04,-475.76
348789.2277,8.784,-192.638,994.788,463.75,2686.25,358.75,98.8,-69.92,-483.36
348789.2776,8.418,-192.272,996.862,-271.25,2852.5,-341.25,95.76,-66.88,-484.88
348789.3277,7.564,-199.043,993.324,96.25,3167.5,-1478.75,106.4,-80.56,-471.2
348789.3776,9.455,-193.309,995.459,-621.25,2817.5,-1487.5,98.8,-72.96,-480.32
348789.4276,9.333,-200.507,995.398,-498.75,3228.75,-875.0,88.16,-80.56,-478.8
348789.4776,3.843,-199.165,995.093,131.25,3552.5,-490.0,89.68,-76.0,-477.28
348789.5283,6.649,-192.76,998.387,87.5,2423.75,-1050.0,97.28,-82.08,-459.04
348789.5776,9.577,-195.993,993.69,-8.75,3342.5,-1181.25,94.24,-76.0,-480.32
348789.6276,3.294,-205.021,994.422,-428.75,2870.0,-1356.25,101.84,-68.4,-475.76
348789.6776,7.442,-204.838,997.472,-306.25,2660.0,-1426.25,85.12,-85.12,-477.28
348789.7276,13.786,-202.825,999.18,455.0,3307.5,105.0,92.72,-82.08,-483.36
348789.7776,9.821,-200.263,998.814,953.75,3193.75,-210.0,95.76,-74.48,-480.32
348789.8276,9.638,-196.054,993.934,350.0,2520.0,-980.0,95.76,-68.4,-466.64
348789.8776,10.675,-188.49,994.91,96.25,2651.25,-796.25,104.88,-88.16,-478.8
348789.9276,12.749,-191.784,996.557,-787.5,3237.5,183.75,89.68,-69.92,-484.88
348789.9776,5.612,-200.69,997.533,-306.25,3570.0,-857.5,110.96,-68.4,-490.96
348790.0276,4.697,-195.749,999.729,105.0,2957.5,-1653.75,86.64,-88.16,-477.28
348790.0776,7.076,-196.969,994.178,306.25,3062.5,-1330.0,103.36,-83.6,-472.72
348790.1276,4.392,-192.516,995.581,-122.5,3211.25,175.0,86.64,-71.44,-475.76
348790.1776,5.063,-195.139,996.13,-560.0,2992.5,-113.75,94.24,-88.16,-474.24
348790.2276,10.37,-198.799,996.679,-1050.0,2738.75,-542.5,98.8,-85.12,-471.2
348790.2776,8.845,-202.825,996.496,-726.25,2861.25,-997.5,83.6,-69.92,-469.68
348790.3276,9.455,-203.191,997.838,-183.75,3010.0,-1303.75,85.12,-77.52,-477.28
348790.3776,1.098,-200.873,995.886,962.5,2432.5,-1942.5,97.28,-83.6,-465.12
348790.4276,7.808,-191.418,994.849,892.5,2082.5,-1128.75,83.6,-72.96,-483.36
348790.4776,5.795,-201.605,996.862,-568.75,2205.0,218.75,95.76,-69.92,-463.6
348790.5276,11.956,-201.361,993.934,0.0,2161.25,-717.5,97.28,-71.44,-463.6
348790.5776,16.836,-203.984,995.764,43.75,2940.0,-700.0,92.72,-71.44,-480.32
348790.6276,11.346,-196.42,998.143,621.25,3360.0,-647.5,104.88,-71.44,-475.76
348790.6776,12.566,-193.309,996.13,358.75,3220.0,-603.75,101.84,-79.04,-475.76
348790.7276,8.784,-193.431,996.74,157.5,3762.5,-936.25,88.16,-66.88,-472.72
348790.7776,6.71,-192.638,996.496,-26.25,3150.0,-656.25,91.2,-69.92,-489.44
348790.8276,9.516,-199.775,999.302,-271.25,3351.25,-358.75,94.24,-68.4,-469.68
348790.8776,6.893,-197.762,995.764,-70.0,3377.5,-945.0,103.36,-77.52,-471.2
348790.9276,6.222,-197.457,995.642,8.75,2957.5,-1435.0,95.76,-63.84,-477.28
348790.9776,8.967,-195.139,993.629,-175.0,3097.5,-918.75,115.52,-66.88,-484.88
348791.0276,6.588,-199.043,993.446,-280.0,3421.25,-122.5,94.24,-88.16,-480.32
348791.0776,4.697,-200.202,996.008,-420.0,3106.25,-516.25,83.6,-59.28,-469.68
348791.1276,5.429,-198.738,996.618,-245.0,2695.0,-770.0,94.24,-74.48,-481.84
348791.1776,10.065,-201.117,995.825,-533.75,2695.0,-787.5,106.4,-85.12,-469.68
348791.2276,12.505,-205.387,996.557,516.25,3080.0,-778.75,97.28,-57.76,-474.24
348791.2776,5.856,-200.446,992.958,770.0,3211.25,-595.0,88.16,-76.0,-471.2
348791.3276,4.88,-190.32,997.899,192.5,3106.25,-883.75,97.28,-79.04,-454.48
348791.3776,7.747,-197.701,997.472,-962.5,2817.5,-612.5,95.76,-79.04,-468.16
348791.4276,8.906,-200.08,994.483,-306.25,3412.5,-463.75,91.2,-66.88,-474.24
348791.4776,4.331,-206.729,997.045,507.5,2922.5,-1085.0,95.76,-68.4,-478.8
348791.5276,8.845,-201.3,997.228,586.25,2940.0,-1023.75,98.8,-79.04,-466.64
348791.5776,5.063,-198.616,994.056,813.75,2940.0,-525.0,83.6,-69.92,-472.72
348791.6276,7.503,-196.542,996.191,866.25,3290.0,-840.0,107.92,-77.52,-484.88
348791.6776,7.32,-193.858,995.398,78.75,3141.25,-682.5,100.32,-74.48,-477.28
348791.7276,7.076,-197.884,995.947,-323.75,3211.25,-542.5,89.68,-79.04,-472.72
348791.7776,6.893,-200.141,998.082,140.0,3027.5,-743.75,103.36,-74.48,-480.32
348791.8276,2.745,-194.102,995.276,210.0,2721.25,-1102.5,103.36,-63.84,-469.68
348791.8776,6.954,-196.969,990.396,210.0,2633.75,-700.0,100.32,-82.08,-469.68
348791.9276,8.296,-195.566,997.716,17.5,3106.25,-218.75,103.36,-68.4,-487.92
348791.9776,7.564,-197.64,994.666,-192.5,2931.25,-542.5,91.2,-66.88,-472.72
348792.0276,6.527,-202.093,997.411,-245.0,2905.0,-1015.0,118.56,-79.04,-466.64
348792.0776,5.185,-195.81,997.106,-201.25,2887.5,-735.0,97.28,-74.48,-474.24
348792.1276,5.795,-200.568,994.422,-490.0,3220.0,-463.75,98.8,-69.92,-469.68
348792.1776,5.917,-199.775,997.533,673.75,2992.5,-568.75,112.48,-76.0,-469.68
348792.2276,9.15,-190.564,996.313,-813.75,3561.25,-306.25,89.68,-79.04,-481.84
348792.2776,3.05,-196.603,1001.864,-1855.0,3333.75,-507.5,89.68,-69.92,-480.32
348792.3276,10.797,-213.012,992.043,-700.0,2791.25,-936.25,92.72,-74.48,-471.2
348792.3776,6.222,-209.84,995.459,-210.0,3395.0,-1365.0,98.8,-69.92,-475.76
348792.4276,5.185,-206.79,995.886,901.25,3027.5,-1356.25,95.76,-77.52,-468.16
348792.4778,2.989,-190.808,995.52,630.0,3368.75,-1181.25,106.4,-68.4,-472.72
348792.5276,0.854,-193.126,996.13,770.0,2458.75,-1128.75,92.72,-72.96,-481.84
348792.5777,4.026,-190.381,995.154,-201.25,1968.75,-463.75,83.6,-65.36,-466.64
348792.6276,10.675,-193.736,998.387,-542.5,2423.75,533.75,97.28,-76.0,-478.8
348792.6777,9.638,-206.302,1000.583,-140.0,2721.25,-245.0,115.52,-76.0,-477.28
348792.7276,7.259,-204.35,999.18,953.75,2887.5,-1426.25,86.64,-69.92,-474.24
348792.7776,7.076,-194.712,994.483,840.0,3062.5,-1846.25,97.28,-71.44,-483.36
348792.8276,6.771,-203.374,992.348,-367.5,3360.0,-691.25,104.88,-71.44,-472.72
348792.8776,4.514,-201.056,998.387,831.25,3298.75,-166.25,91.2,-76.0,-477.28
348792.9276,4.514,-196.481,995.825,113.75,2905.0,-463.75,83.6,-74.48,-484.88
348792.9776,4.514,-198.555,997.411,332.5,2555.0,-927.5,95.76,-83.6,-486.4
348793.0276,8.296,-198.372,998.021,140.0,2642.5,-560.0,100.32,-91.2,-463.6
348793.0776,8.296,-197.823,996.862,1015.0,2738.75,-612.5,86.64,-65.36,-462.08
348793.1276,8.845,-190.625,995.703,1067.5,2660.0,-630.0,89.68,-63.84,-477.28
348793.1776,8.418,-183.976,999.851,61.25,3237.5,-778.75,103.36,-72.96,-468.16
348793.2276,7.259,-197.03,997.533,-997.5,2826.25,-288.75,91.2,-71.44,-474.24
348793.2776,7.381,-196.054,998.265,-105.0,2730.0,-962.5,80.56,-71.44,-472.72
348793.3276,7.198,-198.799,1000.034,350.0,3220.0,-796.25,101.84,-79.04,-469.68
348793.3776,4.758,-195.749,999.851,218.75,3053.75,-603.75,98.8,-76.0,-471.2
348793.4276,8.052,-198.616,996.252,-140.0,2747.5,-735.0,95.76,-69.92,-483.36
348793.4776,6.222,-191.723,997.228,393.75,2896.25,-1015.0,89.68,-69.92,-477.28
348793.5276,6.588,-194.712,997.228,-437.5,3150.0,26.25,95.76,-68.4,-472.72
348793.5776,5.124,-196.786,997.289,-201.25,3141.25,-586.25,80.56,-74.48,-469.68
348793.6276,2.806,-198.982,1000.278,533.75,2808.75,-1041.25,89.68,-80.56,-490.96
348793.6776,8.601,-190.015,993.69,490.0,2677.5,-1163.75,98.8,-74.48,-478.8
348793.7276,8.052,-189.588,992.836,-61.25,2931.25,-288.75,104.88,-79.04,-477.28
348793.7776,6.832,-192.089,996.984,-560.0,3001.25,-96.25,100.32,-66.88,-489.44
348793.8276,7.076,-197.823,997.045,-752.5,3010.0,-770.0,89.68,-72.96,-457.52
348793.8776,6.344,-196.359,998.448,-507.5,2703.75,-1120.0,98.8,-74.48,-478.8
348793.9276,7.686,-203.557,998.57,-210.0,3185.0,-997.5,92.72,-76.0,-486.4
348793.9776,6.222,-202.093,998.57,551.25,3430.0,-1233.75,101.84,-65.36,-475.76
348794.0276,9.15,-191.784,996.13,866.25,2870.0,-831.25,98.8,-85.12,-475.76
348794.0776,6.405,-184.342,996.618,-385.0,3482.5,-411.25,94.24,-71.44,-474.24
348794.1276,5.063,-201.056,993.263,-542.5,2966.25,-192.5,91.2,-72.96,-489.44
348794.1776,0.549,-198.25,994.483,-1408.75,2878.75,-910.0,95.76,-74.48,-478.8
348794.2276,7.625,-203.008,998.814,-1365.0,2581.25,-245.0,100.32,-80.56,-483.36
348794.2776,8.54,-203.252,999.546,-52.5,2712.5,-210.0,85.12,-72.96,-480.32
348794.3276,12.688,-202.947,996.557,35.0,2738.75,-481.25,106.4,-86.64,-465.12
348794.3776,9.394,-194.956,995.276,367.5,3001.25,-1181.25,103.36,-72.96,-475.76
348794.4276,8.296,-195.627,995.459,-236.25,3115.0,-516.25,91.2,-59.28,-486.4
348794.4776,7.076,-197.701,995.337,245.0,3395.0,-595.0,106.4,-82.08,-478.8
348794.5276,4.148,-192.577,995.398,-385.0,2878.75,-1330.0,98.8,-86.64,-469.68
348794.5776,7.93,-197.762,995.093,-735.0,2905.0,-1330.0,94.24,-72.96,-471.2
348794.6276,7.686,-201.361,996.496,-490.0,2957.5,-428.75,85.12,-60.8,-480.32
348794.6776,7.198,-202.825,998.509,-78.75,3167.5,-428.75,103.36,-74.48,-475.76
348794.7276,4.575,-201.91,996.374,428.75,3027.5,-831.25,100.32,-80.56,-466.64
348794.7776,5.673,-198.128,994.178,-761.25,3036.25,-875.0,98.8,-74.48,-475.76
348794.8276,9.089,-204.96,996.801,-262.5,2773.75,-1137.5,100.32,-69.92,-480.32
348794.8776,6.466,-202.093,995.215,743.75,2913.75,-787.5,94.24,-60.8,-465.12
348794.9276,8.54,-194.834,996.13,805.0,3185.0,-560.0,100.32,-68.4,-477.28
348794.9776,5.185,-196.237,998.753,-910.0,3325.0,-393.75,94.24,-65.36,-481.84
348795.0276,8.174,-198.189,993.385,-586.25,2878.75,-1093.75,104.88,-71.44,-474.24
348795.0776,7.259,-202.52,993.873,-577.5,3237.5,-1356.25,94.24,-72.96,-477.28
348795.1276,3.538,-202.52,999.424,236.25,3403.75,-551.25,86.64,-68.4,-477.28
348795.1776,-1.037,-200.202,994.666,525.0,2607.5,-385.0,101.84,-65.36,-492.48
348795.2276,5.246,-201.483,994.91,638.75,2450.0,-796.25,89.68,-69.92,-475.76
348795.2776,7.32,-195.139,997.045,-113.75,2922.5,-288.75,85.12,-72.96,-475.76
348795.3276,9.516,-201.3,998.631,-297.5,3062.5,-210.0,104.88,-77.52,-477.28
348795.3776,4.27,-201.3,994.361,-166.25,3150.0,-752.5,89.68,-71.44,-469.68
348795.4276,5.002,-201.117,994.971,52.5,3193.75,-1216.25,104.88,-68.4,-474.24
348795.4776,6.161,-200.812,995.032,8.75,2756.25,-936.25,94.24,-79.04,-492.48
348795.5276,5.856,-200.202,996.252,-43.75,2817.5,-113.75,109.44,-74.48,-462.08
348795.5776,3.843,-204.594,994.91,0.0,2835.0,-17.5,101.84,-77.52,-474.24
348795.6276,7.686,-200.995,992.836,105.0,2826.25,-840.0,85.12,-65.36,-469.68
348795.6776,7.015,-199.897,994.727,166.25,2660.0,-1330.0,106.4,-74.48,-472.72
348795.7276,9.577,-205.082,996.008,-105.0,2966.25,-796.25,100.32,-59.28,-478.8
348795.7776,3.904,-202.215,996.496,280.0,3115.0,-533.75,94.24,-69.92,-477.28
348795.8278,3.233,-198.006,994.178,910.0,2878.75,-647.5,89.68,-69.92,-483.36
348795.8776,5.002,-191.235,998.448,-796.25,3018.75,-376.25,101.84,-80.56,-457.52
348795.9277,6.1,-205.021,992.409,-315.0,3027.5,-280.0,103.36,-82.08,-478.8
348795.9776,5.795,-200.263,992.226,-218.75,2992.5,-980.0,97.28,-79.04,-480.32
348796.0277,4.514,-199.714,996.923,35.0,2913.75,-927.5,104.88,-80.56,-469.68
348796.0776,4.88,-200.568,997.777,393.75,2922.5,-822.5,85.12,-86.64,-471.2
348796.1276,5.185,-198.616,995.52,35.0,2966.25,-533.75,94.24,-79.04,-465.12
348796.1776,7.503,-192.516,994.3,-8.75,3053.75,-805.0,97.28,-71.44,-465.12
348796.2276,5.124,-195.505,997.472,-743.75,2826.25,-113.75,91.2,-74.48,-465.12
348796.2776,4.27,-201.849,995.886,-428.75,2826.25,-490.0,95.76,-65.36,-481.84
348796.3276,1.769,-203.801,996.801,-43.75,2598.75,-1058.75,98.8,-69.92,-478.8
348796.3776,7.808,-204.838,995.032,-131.25,2791.25,-953.75,101.84,-71.44,-477.28
348796.4276,7.564,-200.446,994.117,236.25,2677.5,-516.25,94.24,-79.04,-468.16
348796.4776,10.309,-198.677,994.788,-122.5,3220.0,157.5,98.8,-71.44,-474.24
348796.5276,3.843,-202.032,994.788,-498.75,3237.5,-647.5,97.28,-76.0,-471.2
348796.5776,3.477,-203.496,996.618,-218.75,2800.0,-1058.75,98.8,-72.96,-466.64
348796.6276,5.063,-198.799,995.459,-183.75,3132.5,-700.0,89.68,-63.84,-477.28
348796.6776,5.551,-205.265,995.459,8.75,2835.0,-271.25,107.92,-77.52,-478.8
348796.7276,8.174,-201.666,997.411,227.5,3027.5,-323.75,88.16,-71.44,-471.2
348796.7776,4.758,-197.823,994.117,647.5,2826.25,-516.25,85.12,-83.6,-466.64
348796.8276,8.357,-193.614,995.459,-288.75,3298.75,-927.5,104.88,-71.44,-477.28
348796.8776,1.22,-206.485,994.239,-603.75,2782.5,-595.0,89.68,-79.04,-475.76
348796.9276,4.575,-207.522,994.971,-385.0,2878.75,-883.75,91.2,-65.36,-474.24
348796.9776,6.893,-207.156,998.936,595.0,2756.25,-831.25,92.72,-72.96,-487.92
348797.0276,2.684,-205.997,999.851,883.75,2975.0,-735.0,98.8,-72.96,-474.24
348797.0776,2.806,-202.52,995.215,936.25,2572.5,-507.5,100.32,-71.44,-460.56
348797.1276,3.477,-194.895,999.18,1330.0,2800.0,-822.5,88.16,-79.04,-480.32
348797.1776,9.577,-193.126,994.971,525.0,2607.5,-498.75,103.36,-68.4,-477.28
348797.2276,9.028,-199.958,995.764,682.5,3237.5,-621.25,100.32,-71.44,-474.24
348797.2776,4.758,-195.078,996.13,358.75,3255.0,-910.0,95.76,-63.84,-481.84
348797.3276,5.368,-195.017,995.032,385.0,2826.25,-1373.75,98.8,-72.96,-481.84
348797.3776,8.54,-189.588,991.982,-175.0,2870.0,-533.75,82.08,-77.52,-463.6
348797.4276,9.455,-194.834,996.008,-332.5,3027.5,8.75,92.72,-68.4,-472.72
348797.4776,4.087,-199.714,999.119,-113.75,3097.5,-525.0,92.72,-68.4,-474.24
348797.5276,4.392,-195.444,995.947,131.25,2581.25,-1032.5,104.88,-77.52,-478.8
348797.5776,6.527,-200.202,994.361,-507.5,2800.0,-603.75,107.92,-72.96,-480.32
348797.6276,6.1,-201.422,995.337,8.75,3228.75,-910.0,94.24,-65.36,-462.08
348797.6776,4.88,-198.067,996.374,341.25,2747.5,-796.25,95.76,-69.92,-471.2
348797.7276,9.272,-193.675,996.862,463.75,2966.25,-586.25,114.0,-74.48,-468.16
348797.7776,1.403,-198.616,997.899,-358.75,2835.0,-26.25,106.4,-76.0,-460.56
348797.8276,4.27,-198.189,993.873,218.75,2581.25,-577.5,86.64,-66.88,-483.36
348797.8776,7.503,-201.666,997.472,26.25,2432.5,-796.25,94.24,-74.48,-475.76
348797.9276,7.747,-199.47,997.655,262.5,2975.0,-516.25,94.24,-71.44,-463.6
348797.9776,5.795,-197.396,995.398,192.5,2782.5,-656.25,92.72,-77.52,-486.4
348798.0276,8.967,-196.481,999.241,761.25,3036.25,-1198.75,100.32,-76.0,-489.44
348798.0776,6.344,-190.564,997.167,183.75,3036.25,-717.5,97.28,-86.64,-472.72
348798.1276,7.625,-198.067,994.971,218.75,3421.25,-700.0,97.28,-72.96,-471.2
348798.1776,3.477,-195.139,996.496,131.25,3316.25,-1102.5,97.28,-68.4,-471.2
348798.2276,2.501,-196.237,994.727,-385.0,2633.75,-1522.5,101.84,-66.88,-478.8
348798.2776,7.991,-195.81,995.52,-463.75,2598.75,-1076.25,80.56,-79.04,-480.32
348798.3276,7.808,-201.361,995.825,-437.5,3106.25,-157.5,95.76,-79.04,-474.24
348798.3776,7.198,-201.117,996.008,-122.5,2896.25,-411.25,94.24,-66.88,-459.04
348798.4276,7.137,-198.86,996.374,17.5,2703.75,-1058.75,103.36,-68.4,-472.72
348798.4776,6.771,-203.313,997.655,-157.5,3193.75,-1233.75,92.72,-71.44,-480.32
348798.5276,8.784,-200.995,997.96,420.0,3158.75,-1767.5,83.6,-72.96,-486.4
348798.5776,10.126,-197.335,995.032,1032.5,2808.75,-1408.75,95.76,-68.4,-474.24
348798.6276,12.017,-190.137,996.679,568.75,3596.25,-603.75,88.16,-72.96,-465.12
348798.6776,3.05,-198.372,995.52,-551.25,3010.0,-350.0,94.24,-77.52,-483.36
348798.7276,6.954,-199.653,995.459,-673.75,3185.0,-901.25,94.24,-74.48,-486.4
348798.7776,5.795,-203.13,996.435,-210.0,3263.75,-700.0,110.96,-83.6,-478.8
348798.8276,4.636,-197.152,998.143,183.75,3281.25,-385.0,92.72,-65.36,-484.88
348798.8776,5.734,-202.52,996.069,288.75,2686.25,-533.75,101.84,-74.48,-466.64
348798.9276,6.344,-196.725,996.801,192.5,3027.5,-953.75,114.0,-85.12,-468.16
348798.9776,4.209,-193.187,994.91,-26.25,2931.25,-393.75,83.6,-79.04,-477.28
348799.0276,6.832,-196.237,997.411,-586.25,3045.0,-411.25,89.68,-79.04,-487.92
348799.0776,2.928,-201.788,997.899,306.25,3053.75,-1041.25,91.2,-74.48,-474.24
348799.1276,3.904,-197.274,996.923,-227.5,3036.25,-997.5,100.32,-83.6,-483.36
348799.1778,7.198,-198.738,995.642,122.5,3001.25,-857.5,88.16,-71.44,-477.28
348799.2276,7.015,-196.664,995.093,-437.5,2861.25,-542.5,85.12,-83.6,-497.04
348799.2777,8.723,-198.494,996.74,-428.75,2896.25,-428.75,95.76,-77.52,-471.2
348799.3276,5.673,-203.496,998.387,-393.75,2966.25,-831.25,85.12,-83.6,-475.76
348799.3778,7.015,-201.422,996.496,166.25,2887.5,-1137.5,100.32,-71.44,-472.72
348799.4276,7.076,-203.679,997.594,-227.5,3141.25,-481.25,94.24,-72.96,-471.2
348799.4776,4.514,-200.629,996.679,376.25,3193.75,-411.25,94.24,-69.92,-475.76
348799.5276,3.721,-194.468,993.385,490.0,2975.0,-647.5,100.32,-68.4,-490.96
348799.5776,4.148,-189.161,998.265,-805.0,3001.25,-577.5,100.32,-80.56,-474.24
348799.6276,7.93,-201.422,992.531,-1198.75,3027.5,-78.75,100.32,-85.12,-477.28
348799.6776,3.721,-203.252,994.422,-743.75,2800.0,-953.75,89.68,-66.88,-460.56
348799.7276,9.333,-208.986,996.74,43.75,2738.75,-848.75,107.92,-68.4,-481.84
348799.7776,6.466,-201.605,995.459,323.75,2922.5,-315.0,106.4,-68.4,-471.2
348799.8276,4.087,-201.056,995.947,43.75,2905.0,-376.25,91.2,-77.52,-480.32
348799.8776,9.577,-193.126,993.995,96.25,2931.25,-708.75,89.68,-68.4,-484.88
348799.9276,2.745,-195.444,994.727,-612.5,3001.25,-568.75,95.76,-86.64,-465.12
348799.9776,7.381,-201.361,997.35,-700.0,2966.25,-525.0,86.64,-76.0,-465.12
348800.0276,3.538,-201.239,999.119,35.0,3123.75,-1006.25,94.24,-69.92,-484.88
348800.0776,7.808,-201.849,993.873,-70.0,2598.75,-892.5,92.72,-68.4,-480.32
348800.1276,7.32,-198.494,994.544,61.25,2747.5,-385.0,88.16,-74.48,-483.36
348800.1776,3.782,-200.812,993.873,-376.25,2887.5,210.0,97.28,-82.08,-475.76
348800.2276,2.928,-206.851,995.337,-402.5,2957.5,-472.5,106.4,-71.44,-466.64
348800.2776,7.381,-204.411,997.35,-175.0,2380.0,-1190.0,100.32,-72.96,-465.12
348800.3276,8.418,-201.544,998.204,201.25,2975.0,-1093.75,86.64,-65.36,-472.72
348800.3776,8.052,-199.653,996.74,87.5,3097.5,-490.0,97.28,-77.52,-472.72
348800.4276,3.477,-203.74,996.374,-8.75,3132.5,-542.5,92.72,-69.92,-478.8
348800.4776,4.27,-202.398,994.971,525.0,3062.5,-1102.5,89.68,-79.04,-475.76
348800.5276,8.418,-196.786,993.08,813.75,2555.0,-875.0,85.12,-60.8,-489.44
348800.5776,8.662,-195.505,996.557,-822.5,3123.75,-122.5,103.36,-74.48,-474.24
348800.6276,6.161,-207.217,992.287,70.0,2817.5,-201.25,95.76,-77.52,-480.32
348800.6776,4.636,-205.631,994.117,-8.75,2625.0,-1277.5,97.28,-76.0,-472.72
348800.7276,9.15,-205.57,997.594,682.5,2668.75,-848.75,103.36,-76.0,-468.16
348800.7776,6.1,-202.093,995.642,516.25,2887.5,-743.75,95.76,-76.0,-472.72
348800.8276,9.577,-197.03,993.751,1365.0,2493.75,-717.5,101.84,-77.52,-486.4
348800.8776,9.089,-192.15,997.045,743.75,2922.5,-918.75,76.0,-68.4,-474.24
348800.9276,7.686,-192.943,996.069,-113.75,3080.0,-358.75,101.84,-72.96,-477.28
348800.9776,9.211,-196.542,997.472,26.25,3211.25,-533.75,91.2,-71.44,-478.8
348801.0276,7.747,-194.712,996.557,-315.0,3018.75,-997.5,85.12,-71.44,-489.44
348801.0776,3.355,-196.481,995.703,-183.75,2712.5,-1233.75,97.28,-79.04,-465.12
348801.1276,8.296,-198.555,993.507,-472.5,2572.5,-218.75,101.84,-74.48,-478.8
348801.1776,9.394,-203.313,995.459,-61.25,2747.5,218.75,91.2,-72.96,-478.8
348801.2276,8.601,-201.788,996.74,-175.0,2660.0,-411.25,106.4,-76.0,-469.68
348801.2776,10.004,-200.69,990.945,-157.5,2791.25,-1032.5,100.32,-76.0,-469.68
348801.3276,7.259,-198.616,995.154,262.5,3211.25,-1286.25,95.76,-74.48,-475.76
348801.3776,6.1,-203.252,998.387,-770.0,2808.75,-1330.0,100.32,-79.04,-474.24
348801.4276,9.577,-204.106,997.838,568.75,3176.25,-805.0,88.16,-80.56,-474.24
348801.4776,9.028,-201.422,997.106,875.0,2843.75,-245.0,91.2,-59.28,-483.36
348801.5276,7.991,-194.285,999.119,236.25,3185.0,-315.0,82.08,-82.08,-471.2
348801.5776,7.686,-202.459,993.324,-148.75,2528.75,-341.25,104.88,-76.0,-465.12
348801.6276,11.651,-199.043,989.603,8.75,2773.75,-1102.5,83.6,-76.0,-466.64
348801.6776,10.614,-204.777,996.923,-61.25,3246.25,-621.25,88.16,-80.56,-489.44
348801.7276,6.527,-202.459,997.472,446.25,3045.0,-962.5,103.36,-57.76,-468.16
348801.7776,13.237,-200.568,995.093,490.0,2765.0,-1163.75,85.12,-69.92,-472.72
348801.8276,7.32,-195.383,997.411,875.0,2948.75,-1163.75,95.76,-74.48,-477.28
348801.8776,12.993,-189.893,996.496,-210.0,2826.25,-315.0,100.32,-77.52,-480.32
348801.9276,13.786,-196.481,995.947,-70.0,3368.75,-542.5,97.28,-71.44,-477.28
348801.9776,5.673,-195.017,998.082,-87.5,3351.25,-1356.25,92.72,-80.56,-477.28
348802.0276,6.405,-197.152,996.008,105.0,2773.75,-1408.75,98.8,-77.52,-480.32
348802.0776,10.37,-191.357,995.093,-323.75,2975.0,-498.75,107.92,-85.12,-463.6
348802.1276,2.806,-191.601,994.239,-1373.75,2817.5,122.5,100.32,-71.44,-480.32
348802.1776,4.026,-206.729,996.557,-1487.5,2187.5,-306.25,91.2,-74.48,-481.84
348802.2276,6.405,-207.522,992.592,-918.75,2143.75,-297.5,92.72,-71.44,-466.64
348802.2776,14.03,-209.047,995.703,-560.0,2598.75,-61.25,94.24,-83.6,-469.68
348802.3276,13.542,-210.206,997.228,35.0,2948.75,-358.75,97.28,-63.84,-477.28
348802.3776,10.858,-203.557,993.873,892.5,3001.25,-883.75,83.6,-62.32,-472.72
348802.4276,13.542,-195.871,994.544,498.75,3080.0,-1303.75,94.24,-72.96,-471.2
348802.4776,10.797,-204.167,993.507,-787.5,3438.75,-385.0,97.28,-80.56,-480.32
348802.5278,7.076,-204.777,991.25,-96.25,3570.0,-1251.25,112.48,-71.44,-472.72
348802.5776,6.771,-209.169,996.374,-192.5,2913.75,-1478.75,97.28,-77.52,-469.68
348802.6277,11.407,-202.947,995.276,691.25,3465.0,-778.75,85.12,-83.6,-475.76
348802.6776,6.893,-197.762,998.143,8.75,3368.75,-437.5,91.2,-76.0,-459.04
348802.7276,10.797,-196.847,996.618,708.75,2773.75,-1181.25,101.84,-72.96,-481.84
348802.7776,12.444,-196.176,996.252,-105.0,3115.0,-726.25,95.76,-68.4,-474.24
348802.8276,10.858,-199.836,996.801,-472.5,3176.25,-455.0,82.08,-62.32,-474.24
348802.8776,10.248,-200.202,994.178,148.75,3377.5,-778.75,97.28,-77.52,-477.28
348802.9276,4.331,-201.056,995.154,-288.75,3368.75,-936.25,92.72,-60.8,-456.0
348802.9776,6.039,-198.921,991.494,-735.0,2476.25,-866.25,85.12,-77.52,-474.24
348803.0276,10.248,-198.128,995.703,-516.25,2800.0,-8.75,89.68,-71.44,-477.28
348803.0776,6.71,-205.631,995.337,-1067.5,2616.25,113.75,104.88,-66.88,-465.12
348803.1276,8.54,-209.901,998.326,-105.0,2721.25,-621.25,91.2,-74.48,-471.2
348803.1776,7.93,-207.461,993.751,148.75,2782.5,-586.25,97.28,-59.28,-459.04
348803.2276,9.821,-205.021,995.52,236.25,2808.75,-840.0,92.72,-77.52,-475.76
348803.2776,10.675,-203.923,995.642,455.0,3001.25,-682.5,103.36,-79.04,-466.64
348803.3276,8.784,-199.897,992.897,175.0,3255.0,-463.75,94.24,-66.88,-468.16
348803.3776,11.834,-200.629,993.202,245.0,3018.75,-918.75,85.12,-65.36,-472.72
348803.4276,9.516,-198.799,997.472,-892.5,3080.0,-892.5,97.28,-79.04,-460.56
348803.4776,9.699,-209.474,995.886,227.5,3071.25,-560.0,94.24,-74.48,-466.64
348803.5276,5.185,-207.461,994.666,-78.75,3202.5,-1032.5,89.68,-72.96,-480.32
348803.5776,7.32,-204.716,996.862,516.25,2975.0,-1085.0,95.76,-72.96,-481.84
348803.6276,6.954,-200.324,995.398,201.25,3176.25,-691.25,85.12,-72.96,-466.64
348803.6776,10.309,-201.666,996.435,-52.5,2913.75,-481.25,86.64,-77.52,-472.72
348803.7276,6.466,-199.348,996.801,-210.0,3150.0,-743.75,94.24,-79.04,-481.84
348803.7776,6.344,-202.337,997.899,-437.5,2887.5,-638.75,107.92,-79.04,-469.68
348803.8276,9.699,-206.607,997.167,166.25,2992.5,-953.75,83.6,-74.48,-477.28
