TimeStamp,ax,ay,az,gx,gy,gz,mx,my,mz
346946.7776,59.658,-163.968,971.974,-1995.0,-1837.5,-3517.5,89.68,-48.64,-460.56
346946.8276,100.65,-176.046,1006.805,-2563.75,560.0,6693.75,80.56,-36.48,-454.48
346946.8776,75.091,-169.824,998.448,-1408.75,735.0,7918.75,69.92,-41.04,-443.84
346946.9276,85.4,-179.096,1001.01,-3193.75,1513.75,7743.75,79.04,-34.96,-465.12
346946.9776,64.416,-168.726,1000.583,17.5,1058.75,9835.0,77.52,-27.36,-465.12
346947.0276,57.401,-154.635,992.775,-1601.25,-140.0,11226.25,79.04,-33.44,-471.2
346947.0776,75.274,-186.538,1000.827,-113.75,-2371.25,12145.0,86.64,-31.92,-433.2
346947.1276,81.862,-172.203,993.629,-35.0,-3911.25,12398.75,95.76,-36.48,-442.32
346947.1776,77.653,-189.222,983.686,-4331.25,-4217.5,9686.25,79.04,-24.32,-460.56
346947.2276,94.367,-212.524,999.912,-1522.5,-5092.5,6230.0,85.12,-22.8,-445.36
346947.2776,101.504,-196.908,987.102,-1128.75,-5845.0,6562.5,91.2,-25.84,-456.0
346947.3277,109.007,-192.577,986.614,-2196.25,-4655.0,5687.5,74.48,-19.76,-434.72
346947.3776,112.118,-200.141,978.379,-2371.25,-5162.5,4777.5,91.2,-24.32,-436.24
346947.4276,127.978,-199.348,994.971,-3027.5,-2913.75,5285.0,72.96,-31.92,-428.64
346947.4776,116.937,-201.727,984.174,-2712.5,-5250.0,7157.5,82.08,-25.84,-449.92
346947.5276,136.335,-203.13,1001.864,-3666.25,-3640.0,8041.25,62.32,-18.24,-443.84
346947.5776,125.721,-225.578,975.329,-3106.25,-3491.25,5713.75,80.56,-6.08,-430.16
346947.6276,130.54,-208.986,990.274,-1312.5,-3001.25,3631.25,82.08,-13.68,-425.6
346947.6776,143.106,-199.287,982.527,-3605.0,-3823.75,5127.5,83.6,-13.68,-446.88
346947.7276,152.439,-211.67,974.841,-2747.5,-3535.0,6991.25,72.96,-15.2,-433.2
346947.7776,171.41,-226.859,965.752,-5897.5,-3001.25,7866.25,72.96,-10.64,-439.28
346947.8276,179.34,-272.67,968.68,-4926.25,1461.25,4602.5,71.44,0.0,-430.16
346947.8776,155.977,-266.753,983.686,-1828.75,3570.0,1085.0,77.52,12.16,-436.24
346947.9276,146.583,-244.427,994.483,1207.5,4182.5,-813.75,79.04,-13.68,-419.52
346947.9776,137.372,-219.112,984.174,5022.5,1645.0,901.25,79.04,4.56,-424.08
346948.0276,149.755,-198.189,974.17,5582.5,1006.25,1417.5,76.0,-6.08,-421.04
346948.0776,154.33,-207.156,981.978,-420.0,3403.75,2616.25,74.48,0.0,-434.72
346948.1276,149.267,-223.565,977.708,866.25,3333.75,5678.75,77.52,-4.56,-421.04
346948.1776,127.49,-143.106,985.089,-3167.5,1995.0,7236.25,94.24,0.0,-434.72
346948.2276,135.481,-123.403,1036.878,-3508.75,-5468.75,10500.0,77.52,6.08,-421.04
346948.2776,232.471,105.042,1069.879,-17491.25,-2511.25,22286.25,89.68,-6.08,-428.64
346948.3276,153.049,-33.001,957.761,-57443.75,11305.0,31386.25,89.68,19.76,-425.6
346948.3776,117.242,-173.972,816.546,-37257.5,3535.0,25112.5,88.16,38.0,-425.6
346948.4276,166.042,-333.365,926.102,-86721.25,16065.0,28822.5,95.76,48.64,-404.32
346948.4776,153.964,-500.688,894.626,-48492.5,14945.0,27256.25,106.4,72.96,-378.48
346948.5276,48.068,-636.169,765.794,-26626.25,18882.5,25445.0,124.64,97.28,-357.2
346948.5776,-17.202,-514.84,796.721,-33582.5,19985.0,16800.0,129.2,107.92,-352.64
346948.6276,-24.339,-539.423,810.751,-30992.5,13492.5,12398.75,136.8,115.52,-343.52
346948.6776,-41.846,-582.001,814.655,-54652.5,15540.0,12451.25,139.84,121.6,-329.84
346948.7276,-70.882,-716.567,799.771,-44686.25,10526.25,7901.25,150.48,135.28,-319.2
346948.7776,-22.021,-754.326,776.225,-29470.0,1093.75,5363.75,145.92,147.44,-300.96
346948.8276,-3.599,-779.397,788.73,-24885.0,472.5,4471.25,152.0,139.84,-288.8
346948.8776,0.122,-781.715,801.052,-17080.0,-2511.25,1855.0,155.04,144.4,-278.16
346948.9276,-14.091,-784.643,796.05,-11445.0,-3535.0,0.0,153.52,155.04,-267.52
346948.9776,-37.393,-842.593,802.15,3858.75,-5267.5,-656.25,156.56,156.56,-285.76
346949.0276,3.416,-698.389,821.121,16913.75,-10316.25,0.0,145.92,147.44,-288.8
346949.0776,17.263,-577.487,808.494,24456.25,-15566.25,-1085.0,150.48,152.0,-290.32
346949.1276,80.032,-554.124,802.943,14043.75,-15557.5,-2905.0,144.4,139.84,-288.8
346949.1776,131.089,-637.938,806.115,16091.25,-10552.5,-14201.25,136.8,145.92,-310.08
346949.2276,165.005,-582.672,823.744,18558.75,-8163.75,-19328.75,121.6,138.32,-307.04
346949.2777,207.522,-614.453,815.326,26040.0,6527.5,-35761.25,123.12,129.2,-314.64
346949.3276,165.127,-690.215,858.88,22356.25,18366.25,-83011.25,107.92,121.6,-331.36
346949.3776,166.469,-643.916,869.86,38473.75,14402.5,-116567.5,86.64,98.8,-320.72
346949.4276,267.18,-383.019,842.349,39751.25,21603.75,-98673.75,63.84,82.08,-331.36
346949.4776,243.695,-366.0,838.811,23782.5,38701.25,-79397.5,44.08,39.52,-355.68
346949.5276,53.558,-407.968,851.987,13457.5,38657.5,-59220.0,51.68,31.92,-364.8
346949.5776,64.477,-474.519,876.997,16861.25,17071.25,-38885.0,34.96,13.68,-384.56
346949.6276,117.791,-432.978,900.665,23003.75,7542.5,-21113.75,41.04,1.52,-386.08
346949.6776,206.668,-365.817,894.382,21323.75,6851.25,13230.0,30.4,-10.64,-402.8
346949.7276,179.767,-348.188,917.379,18690.0,18698.75,13072.5,33.44,-9.12,-410.4
346949.7776,107.116,-307.806,988.932,34405.0,6195.0,7087.5,44.08,-6.08,-407.36
346949.8276,155.977,-161.589,992.409,28463.75,122.5,4620.0,39.52,-24.32,-414.96
346949.8776,240.767,-291.458,973.865,29653.75,-2065.0,-52.5,44.08,-24.32,-425.6
346949.9276,286.029,-103.334,888.404,37327.5,525.0,-6746.25,41.04,-36.48,-440.8
346949.9776,269.803,-157.38,905.667,31123.75,12250.0,-16940.0,45.6,-38.0,-427.12
346950.0276,221.796,-52.582,952.698,11261.25,12853.75,-27562.5,39.52,-53.2,-433.2
346950.0776,221.979,-212.158,1000.461,21726.25,19670.0,-41387.5,51.68,-66.88,-443.84
346950.1276,118.462,-54.778,1009.184,12582.5,14192.5,-44861.25,42.56,-85.12,-456.0
346950.1776,141.947,-63.989,978.44,-2677.5,17876.25,-27580.0,47.12,-76.0,-457.52
346950.2276,103.517,-74.786,1007.659,-10998.75,20938.75,-17657.5,41.04,-92.72,-449.92
346950.2776,21.167,-179.462,1048.102,-9913.75,20466.25,-17106.25,45.6,-89.68,-454.48
346950.3276,0.915,-90.646,1035.048,13098.75,12311.25,-16152.5,60.8,-107.92,-460.56
346950.3776,23.79,-74.725,988.2,6063.75,14638.75,-10482.5,60.8,-109.44,-463.6
346950.4276,-59.78,-44.652,993.873,7358.75,8881.25,-10911.25,56.24,-101.84,-474.24
346950.4776,-44.835,14.945,995.825,3780.0,2467.5,-5267.5,63.84,-117.04,-474.24
346950.5276,52.704,-27.816,1012.661,3596.25,-7647.5,4786.25,62.32,-114.0,-451.44
346950.5776,76.433,46.848,986.126,-2546.25,-4375.0,3850.0,59.28,-114.0,-462.08
346950.6276,118.767,-68.747,996.069,-21595.0,-7980.0,12092.5,48.64,-109.44,-468.16
346950.6776,173.911,-147.498,1011.075,-28341.25,-8032.5,13300.0,59.28,-80.56,-443.84
346950.7276,166.53,-237.717,1018.212,-33766.25,-9283.75,14778.75,48.64,-76.0,-449.92
346950.7776,173.118,-311.344,957.456,-22137.5,-10631.25,19442.5,34.96,-71.44,-430.16
346950.8276,131.394,-323.727,983.503,-7105.0,-12040.0,34273.75,57.76,-56.24,-431.68
346950.8776,173.179,-209.962,945.5,-5740.0,8898.75,37940.0,53.2,-50.16,-425.6
346950.9276,67.588,-344.65,964.166,-16021.25,927.5,16248.75,69.92,-28.88,-422.56
346950.9776,202.947,-358.802,981.917,-17850.0,-3491.25,8575.0,66.88,-38.0,-436.24
346951.0276,102.053,-409.615,968.497,-7910.0,9327.5,-2835.0,63.84,-25.84,-407.36
346951.0776,35.319,-374.845,1009.245,-3010.0,6772.5,-8382.5,53.2,-24.32,-405.84
346951.1278,51.484,-382.348,1022.299,-11147.5,542.5,-5810.0,56.24,-31.92,-424.08
346951.1776,135.542,-383.08,1016.565,-5328.75,1732.5,-6702.5,66.88,-34.96,-399.76
346951.2277,100.955,-464.332,931.775,-5862.5,-735.0,-6676.25,63.84,-33.44,-392.16
346951.2776,170.8,-264.923,888.099,16310.0,-6457.5,-11322.5,54.72,-30.4,-411.92
346951.3276,195.383,-215.147,912.194,8120.0,3106.25,-6055.0,48.64,-38.0,-408.88
346951.3776,120.597,-169.519,950.136,-4383.75,3438.75,-2590.0,36.48,-39.52,-404.32
346951.4276,178.913,-167.872,992.104,-17.5,-9353.75,-2817.5,41.04,-38.0,-410.4
346951.4776,184.891,-217.404,919.514,-2800.0,831.25,-6518.75,38.0,-25.84,-392.16
346951.5276,165.859,-322.324,908.656,-8461.25,16633.75,-9423.75,56.24,-42.56,-404.32
346951.5776,86.498,-309.392,867.847,16091.25,23178.75,-11235.0,68.4,-31.92,-398.24
346951.6276,96.197,-83.326,973.987,-2485.0,446.25,5512.5,42.56,-36.48,-411.92
346951.6776,114.985,-302.804,1005.219,-13860.0,-4830.0,6623.75,38.0,-42.56,-407.36
346951.7276,183.732,-353.678,1009.123,3027.5,-2966.25,7070.0,56.24,-38.0,-399.76
346951.7776,146.4,-322.629,1004.975,-3797.5,12985.0,1907.5,53.2,-42.56,-401.28
346951.8276,99.613,-349.347,1007.049,-778.75,9546.25,-2441.25,60.8,-28.88,-411.92
346951.8776,90.341,-339.099,1001.62,262.5,2738.75,-1671.25,71.44,-45.6,-393.68
346951.9276,97.722,-309.514,978.135,-5652.5,-1531.25,5433.75,62.32,-18.24,-402.8
346951.9776,158.051,-271.084,988.017,10115.0,-13343.75,-953.75,62.32,-38.0,-398.24
346952.0276,183.122,-281.637,980.88,-9213.75,5993.75,8837.5,48.64,-28.88,-399.76
346952.0776,102.846,-328.851,954.894,-5495.0,4611.25,8680.0,71.44,-25.84,-392.16
346952.1276,144.326,-279.624,956.053,-3027.5,-3928.75,-3508.75,48.64,-16.72,-387.6
346952.1776,154.33,-266.509,943.487,-10788.75,-1723.75,-2800.0,48.64,-24.32,-392.16
346952.2276,200.69,-287.798,956.785,-2257.5,-3438.75,9730.0,51.68,-33.44,-389.12
346952.2776,168.482,-314.089,948.367,-9222.5,16878.75,42000.0,63.84,-18.24,-372.4
346952.3276,39.955,-373.503,963.739,-10701.25,16712.5,18322.5,60.8,-10.64,-395.2
346952.3776,81.069,-364.963,953.064,-1111.25,-2038.75,-19827.5,68.4,-15.2,-396.72
346952.4276,139.934,-331.108,940.071,-525.0,-5136.25,-21210.0,80.56,-12.16,-383.04
346952.4776,163.846,-320.494,956.663,-971.25,1312.5,-6982.5,72.96,-6.08,-384.56
346952.5276,130.54,-341.356,959.774,-1566.25,1487.5,-1146.25,51.68,-19.76,-384.56
346952.5776,148.657,-338.123,953.918,-2703.75,1575.0,2476.25,59.28,-15.2,-380.0
346952.6276,139.446,-349.591,947.879,-752.5,3001.25,1321.25,57.76,-3.04,-386.08
346952.6776,139.446,-331.23,946.781,490.0,2800.0,-621.25,56.24,-7.6,-387.6
346952.7276,138.775,-330.071,949.526,-708.75,3832.5,-1898.75,62.32,0.0,-367.84
346952.7776,128.527,-322.568,951.173,-2117.5,3473.75,-971.25,72.96,-16.72,-369.36
346952.8276,135.969,-346.297,948.55,-1242.5,3071.25,8.75,60.8,-10.64,-375.44
346952.8776,138.348,-341.478,951.783,-1120.0,2940.0,-875.0,71.44,0.0,-384.56
346952.9276,140.422,-331.962,955.016,-971.25,3788.75,-2073.75,57.76,-7.6,-384.56
346952.9776,158.661,-364.414,945.195,-2030.0,3491.25,5048.75,68.4,-3.04,-366.32
346953.0276,141.581,-354.288,945.561,2686.25,7927.5,7210.0,71.44,3.04,-381.52
346953.0777,93.391,-326.899,951.234,2616.25,4506.25,-1321.25,71.44,-7.6,-384.56
346953.1276,123.22,-332.084,943.487,560.0,2747.5,-1461.25,65.36,-9.12,-367.84
346953.1776,117.303,-317.139,950.929,-1417.5,3360.0,-2660.0,62.32,-9.12,-387.6
346953.2276,117.425,-356.24,957.334,-1286.25,603.75,-5897.5,62.32,-4.56,-389.12
346953.2776,144.631,-337.086,946.598,-1190.0,813.75,-3500.0,62.32,-3.04,-384.56
346953.3276,131.577,-342.942,952.088,2091.25,4436.25,393.75,69.92,1.52,-375.44
346953.3776,117.974,-346.602,948.916,210.0,2196.25,-2047.5,69.92,-4.56,-375.44
346953.4276,131.699,-332.084,949.16,-52.5,1443.75,-2275.0,54.72,-10.64,-378.48
346953.4776,129.93,-349.896,945.439,192.5,2248.75,-1417.5,74.48,-9.12,-392.16
346953.5276,136.335,-332.633,946.781,516.25,2205.0,-271.25,68.4,-9.12,-387.6
346953.5776,131.699,-346.968,952.454,551.25,3036.25,-525.0,74.48,-12.16,-378.48
346953.6276,131.455,-329.156,945.012,-1120.0,3176.25,-1408.75,65.36,-4.56,-375.44
346953.6776,137.494,-325.13,947.269,-1408.75,2922.5,-2012.5,60.8,3.04,-364.8
346953.7276,140.422,-346.175,938.912,-5092.5,4821.25,-5748.75,65.36,-12.16,-383.04
346953.7776,136.274,-351.909,942.694,-3578.75,4375.0,-3998.75,44.08,-6.08,-384.56
346953.8276,124.135,-351.482,954.894,-1627.5,4296.25,-87.5,57.76,-10.64,-389.12
346953.8776,129.259,-357.582,945.378,-306.25,2537.5,-472.5,69.92,-10.64,-378.48
346953.9276,129.442,-351.482,945.317,612.5,2686.25,-1102.5,65.36,-10.64,-375.44
346953.9776,131.394,-333.182,943.731,-455.0,3001.25,-857.5,57.76,-19.76,-373.92
346954.0276,128.588,-347.822,941.23,-1977.5,2852.5,-420.0,65.36,-16.72,-383.04
346954.0776,133.285,-347.395,949.16,166.25,2292.5,-122.5,62.32,-3.04,-383.04
346954.1276,130.845,-350.872,940.559,-866.25,2817.5,498.75,71.44,-25.84,-386.08
346954.1776,135.847,-344.284,945.805,341.25,2975.0,-1592.5,60.8,0.0,-373.92
346954.2276,130.296,-357.216,944.28,-70.0,2756.25,-271.25,69.92,-16.72,-378.48
346954.2776,124.562,-345.077,941.352,568.75,2721.25,-87.5,65.36,-6.08,-372.4
346954.3276,132.37,-350.079,945.195,131.25,1828.75,656.25,57.76,-3.04,-367.84
346954.3776,135.847,-345.626,943.365,-245.0,2502.5,1522.5,51.68,0.0,-383.04
346954.4276,131.577,-356.301,941.352,-525.0,3115.0,-988.75,74.48,-4.56,-367.84
346954.4776,135.603,-350.689,949.526,-595.0,2082.5,-1067.5,69.92,-4.56,-386.08
346954.5276,138.897,-353.8,941.84,-175.0,2992.5,-577.5,59.28,-12.16,-370.88
346954.5776,128.466,-347.151,945.378,-376.25,3526.25,-892.5,60.8,-10.64,-373.92
346954.6276,126.941,-357.948,945.256,306.25,2948.75,-1925.0,66.88,-3.04,-367.84
346954.6776,132.065,-346.785,942.694,-638.75,2817.5,183.75,69.92,1.52,-376.96
346954.7276,125.843,-347.212,945.683,-822.5,1916.25,-393.75,74.48,-6.08,-378.48
346954.7776,135.969,-349.591,939.156,-542.5,1811.25,26.25,66.88,-7.6,-373.92
346954.8276,140.361,-349.652,941.596,262.5,2108.75,542.5,59.28,-15.2,-376.96
346954.8776,137.128,-345.87,950.075,-1093.75,2948.75,-665.0,66.88,-4.56,-381.52
346954.9278,135.603,-363.987,941.047,691.25,3675.0,-1225.0,59.28,-6.08,-380.0
346954.9776,123.281,-352.58,941.352,-735.0,3071.25,-253.75,66.88,1.52,-373.92
346955.0277,135.847,-355.935,946.659,437.5,2555.0,-96.25,68.4,0.0,-367.84
346955.0776,133.468,-349.164,940.071,-367.5,2913.75,-700.0,63.84,-10.64,-369.36
346955.1276,127.734,-355.386,944.463,-35.0,3123.75,-1583.75,53.2,3.04,-372.4
346955.1776,134.688,-350.384,943.365,-542.5,2196.25,-218.75,69.92,-3.04,-387.6
346955.2276,133.834,-354.837,940.742,140.0,2817.5,-1242.5,59.28,-6.08,-381.52
346955.2776,133.468,-345.87,941.474,-288.75,3360.0,-805.0,68.4,0.0,-387.6
346955.3276,130.052,-351.055,945.439,735.0,2432.5,-918.75,76.0,-6.08,-375.44
346955.3776,133.407,-350.384,941.596,-831.25,2423.75,-498.75,57.76,-10.64,-364.8
346955.4276,130.906,-353.617,942.45,577.5,2975.0,-446.25,63.84,-18.24,-384.56
346955.4776,136.335,-345.443,937.448,-1198.75,2992.5,-586.25,63.84,-3.04,-390.64
346955.5276,139.019,-346.785,946.476,1146.25,2843.75,-700.0,63.84,0.0,-375.44
346955.5776,123.342,-361.059,942.816,-1338.75,3123.75,-96.25,82.08,3.04,-357.2
346955.6276,127.429,-362.95,940.437,-210.0,2861.25,-2047.5,62.32,-12.16,-366.32
346955.6776,133.59,-353.556,943.914,-227.5,2187.5,-910.0,60.8,-3.04,-378.48
346955.7276,139.202,-354.349,940.01,840.0,2826.25,210.0,59.28,-6.08,-375.44
346955.7776,132.309,-351.177,936.472,-183.75,2747.5,-787.5,63.84,0.0,-372.4
346955.8276,132.675,-353.678,947.513,43.75,2843.75,-288.75,68.4,3.04,-366.32
346955.8776,134.627,-356.606,942.694,-96.25,2765.0,-157.5,69.92,-21.28,-364.8
346955.9276,134.078,-349.286,943.67,43.75,3377.5,-927.5,69.92,-9.12,-366.32
346955.9776,130.052,-353.19,942.877,472.5,3001.25,-691.25,63.84,3.04,-375.44
346956.0276,134.993,-347.578,938.058,-542.5,2441.25,-280.0,72.96,-6.08,-380.0
346956.0776,133.895,-358.741,944.524,61.25,2765.0,8.75,66.88,1.52,-381.52
346956.1276,133.895,-355.813,941.413,-315.0,2590.0,-936.25,66.88,3.04,-372.4
346956.1776,138.165,-347.639,940.62,910.0,3193.75,-743.75,77.52,9.12,-369.36
346956.2276,135.176,-349.042,941.84,-367.5,3237.5,-927.5,68.4,-6.08,-369.36
346956.2776,126.941,-351.726,947.94,-525.0,2957.5,-1067.5,76.0,7.6,-381.52
346956.3276,128.039,-355.508,941.413,157.5,3123.75,-997.5,57.76,-15.2,-381.52
346956.3776,129.198,-352.153,940.376,-201.25,2633.75,-507.5,60.8,9.12,-386.08
346956.4276,131.394,-354.288,939.461,-87.5,2983.75,-131.25,72.96,6.08,-373.92
346956.4776,132.553,-356.606,942.755,-306.25,2432.5,-682.5,76.0,-3.04,-373.92
346956.5276,130.784,-351.787,946.903,-638.75,3333.75,-726.25,60.8,3.04,-376.96
346956.5776,136.823,-358.68,942.877,638.75,2266.25,-61.25,59.28,-10.64,-373.92
346956.6276,136.823,-352.946,943.609,411.25,2922.5,-568.75,63.84,1.52,-372.4
346956.6776,133.102,-356.301,941.291,551.25,2966.25,-787.5,63.84,-3.04,-375.44
346956.7276,131.943,-348.127,945.012,210.0,2555.0,-253.75,62.32,-4.56,-369.36
346956.7776,134.505,-358.07,943.06,-560.0,3123.75,-910.0,63.84,-3.04,-373.92
346956.8276,128.71,-353.251,946.049,122.5,3403.75,-1225.0,68.4,-6.08,-383.04
346956.8777,130.906,-357.033,941.657,402.5,2861.25,-1041.25,59.28,-9.12,-378.48
346956.9276,132.004,-344.345,942.694,-236.25,2642.5,0.0,63.84,-10.64,-372.4
346956.9776,132.431,-347.944,948.123,-113.75,2660.0,-288.75,77.52,4.56,-372.4
346957.0276,133.834,-359.351,939.4,-323.75,2826.25,-525.0,50.16,15.2,-375.44
346957.0776,129.991,-353.007,941.108,-148.75,2835.0,-113.75,54.72,-6.08,-361.76
346957.1276,137.006,-358.375,940.498,-43.75,2686.25,-463.75,71.44,-7.6,-375.44
346957.1776,130.662,-353.983,939.827,-603.75,2808.75,-70.0,57.76,9.12,-372.4
346957.2276,129.564,-353.068,945.561,192.5,2773.75,-1128.75,59.28,4.56,-369.36
346957.2776,133.956,-357.704,940.742,-288.75,2248.75,-245.0,57.76,-4.56,-380.0
346957.3276,136.945,-358.741,944.402,603.75,2922.5,-315.0,69.92,-3.04,-366.32
346957.3776,129.808,-358.07,940.62,-735.0,3010.0,-945.0,68.4,-7.6,-381.52
346957.4276,130.845,-350.811,940.925,-52.5,2441.25,-157.5,72.96,-6.08,-392.16
346957.4776,137.982,-359.412,940.803,-533.75,2625.0,-218.75,56.24,-15.2,-386.08
346957.5276,131.272,-358.619,939.766,-306.25,3500.0,-1347.5,65.36,-9.12,-370.88
346957.5776,130.113,-361.852,941.657,-437.5,3202.5,-1260.0,56.24,3.04,-376.96
346957.6276,132.37,-355.325,940.681,140.0,2756.25,-35.0,68.4,-6.08,-369.36
346957.6776,134.2,-357.521,944.707,-175.0,3106.25,-682.5,68.4,-7.6,-387.6
346957.7276,133.041,-354.044,947.635,-192.5,2808.75,-420.0,59.28,1.52,-370.88
346957.7776,128.1,-364.048,935.313,183.75,2756.25,-735.0,59.28,3.04,-369.36
346957.8276,131.089,-352.092,940.986,525.0,2546.25,-332.5,47.12,7.6,-367.84
346957.8776,133.346,-356.545,942.084,-393.75,3447.5,-262.5,66.88,-12.16,-378.48
346957.9276,130.906,-360.571,939.583,420.0,3202.5,-1697.5,59.28,-13.68,-376.96
346957.9776,127.246,-358.009,947.208,-953.75,3141.25,-822.5,59.28,-4.56,-375.44
346958.0276,136.823,-354.959,942.816,831.25,2642.5,-113.75,65.36,-12.16,-360.24
346958.0776,131.76,-352.092,938.424,936.25,2905.0,-481.25,65.36,-4.56,-357.2
346958.1276,130.235,-349.286,942.755,-297.5,3158.75,-787.5,71.44,-7.6,-369.36
346958.1776,131.333,-355.447,939.461,-568.75,2791.25,-402.5,69.92,-16.72,-369.36
346958.2276,135.786,-357.643,944.768,-901.25,3158.75,-402.5,63.84,-6.08,-366.32
346958.2776,124.379,-372.283,943.121,393.75,2817.5,-1312.5,68.4,0.0,-373.92
346958.3276,132.126,-353.739,940.681,542.5,2275.0,-761.25,68.4,-7.6,-381.52
346958.3776,130.54,-354.654,942.328,253.75,2826.25,52.5,69.92,-3.04,-378.48
346958.4276,135.42,-345.138,948.184,-201.25,3281.25,-542.5,65.36,1.52,-366.32
346958.4776,128.405,-371.429,940.071,463.75,3036.25,-980.0,63.84,-7.6,-367.84
346958.5276,130.052,-352.702,940.62,-402.5,3062.5,-376.25,54.72,6.08,-369.36
346958.5776,132.797,-360.51,940.315,-78.75,2852.5,-411.25,59.28,-4.56,-383.04
346958.6276,131.089,-358.131,942.572,-402.5,2826.25,-647.5,65.36,6.08,-373.92
346958.6776,132.004,-361.364,941.84,8.75,3246.25,-621.25,72.96,3.04,-370.88
346958.7276,128.039,-363.682,943.548,-175.0,2135.0,-621.25,63.84,7.6,-366.32
346958.7776,136.823,-359.9,936.716,323.75,2887.5,-437.5,56.24,0.0,-366.32
346958.8277,133.651,-363.072,938.302,647.5,3535.0,-35.0,60.8,-3.04,-364.8
346958.8776,124.684,-369.233,941.962,-1863.75,3150.0,-901.25,69.92,0.0,-383.04
346958.9276,127.124,-381.372,944.707,-35.0,2686.25,-1846.25,66.88,-3.04,-386.08
346958.9776,133.712,-376.126,942.877,962.5,3841.25,735.0,65.36,-13.68,-367.84
346959.0276,127.307,-362.645,942.206,3622.5,2677.5,-700.0,51.68,-3.04,-376.96
346959.0776,125.782,-348.798,939.705,2135.0,1863.75,-770.0,65.36,-13.68,-373.92
346959.1276,143.228,-336.659,949.221,1645.0,3552.5,-787.5,53.2,-18.24,-380.0
346959.1776,130.113,-345.626,936.594,1697.5,3850.0,-1085.0,60.8,3.04,-392.16
346959.2276,125.05,-325.008,943.365,271.25,3255.0,-1452.5,65.36,-15.2,-376.96
346959.2776,131.028,-336.049,944.829,1146.25,2905.0,-148.75,76.0,-16.72,-360.24
346959.3276,128.588,-330.681,945.256,743.75,2870.0,-682.5,60.8,-3.04,-383.04
346959.3776,127.124,-326.777,946.659,-778.75,3710.0,-962.5,66.88,-3.04,-387.6
346959.4276,126.514,-341.295,949.343,-638.75,2983.75,-1015.0,77.52,-6.08,-381.52
346959.4776,124.745,-348.31,944.341,-1128.75,3718.75,-253.75,60.8,-6.08,-383.04
346959.5276,118.584,-341.295,945.866,-35.0,2572.5,-892.5,68.4,-3.04,-378.48
346959.5776,126.331,-352.702,941.657,-358.75,1942.5,-1295.0,57.76,-10.64,-370.88
346959.6276,138.714,-337.33,948.977,-8.75,3088.75,52.5,62.32,-9.12,-373.92
346959.6776,127.978,-351.36,949.343,-402.5,3893.75,-778.75,56.24,-10.64,-389.12
346959.7276,124.074,-353.678,945.317,-192.5,3465.0,-1881.25,65.36,-4.56,-376.96
346959.7776,119.926,-351.543,951.966,1785.0,2240.0,-1610.0,68.4,-10.64,-373.92
346959.8276,134.81,-331.901,947.696,-201.25,3010.0,-148.75,62.32,-7.6,-386.08
346959.8776,120.963,-346.419,940.376,-761.25,2633.75,813.75,68.4,6.08,-378.48
346959.9276,130.052,-353.007,948.123,-1085.0,2257.5,-183.75,56.24,-4.56,-384.56
346959.9776,135.42,-352.824,943.731,271.25,2800.0,-1636.25,63.84,-9.12,-386.08
346960.0276,137.006,-350.506,937.997,-490.0,3325.0,-376.25,69.92,-15.2,-389.12
346960.0776,121.756,-346.602,951.478,630.0,3508.75,-945.0,69.92,-7.6,-383.04
346960.1276,129.137,-355.447,950.502,708.75,2012.5,-1802.5,76.0,-9.12,-375.44
346960.1776,137.189,-341.783,939.156,848.75,2922.5,-1006.25,65.36,3.04,-381.52
346960.2276,120.719,-332.267,946.354,183.75,3307.5,-385.0,65.36,0.0,-383.04
346960.2776,121.085,-342.332,944.28,-980.0,2450.0,-1128.75,65.36,-12.16,-386.08
346960.3276,133.346,-357.887,942.877,-3307.5,2738.75,-35.0,62.32,-4.56,-370.88
346960.3776,125.233,-356.545,947.696,840.0,3062.5,-761.25,66.88,-7.6,-378.48
346960.4276,124.806,-352.885,942.694,280.0,3438.75,-1260.0,47.12,-9.12,-383.04
346960.4776,130.418,-338.001,952.82,402.5,3150.0,-910.0,66.88,0.0,-383.04
346960.5276,127.368,-351.726,948.916,148.75,2826.25,-665.0,57.76,-4.56,-376.96
346960.5776,124.013,-332.633,939.522,8.75,2817.5,341.25,57.76,-9.12,-376.96
346960.6276,136.518,-345.138,944.585,-805.0,1995.0,-122.5,71.44,0.0,-373.92
346960.6778,135.664,-353.617,942.145,-481.25,3307.5,-840.0,66.88,-18.24,-375.44
346960.7276,128.588,-353.068,945.134,175.0,2896.25,-761.25,76.0,-6.08,-378.48
346960.7777,126.514,-352.824,949.404,-1015.0,3001.25,-1207.5,54.72,4.56,-366.32
346960.8276,131.211,-356.179,942.206,350.0,2625.0,-831.25,63.84,1.52,-389.12
346960.8776,128.1,-346.419,943.853,-761.25,2913.75,-822.5,68.4,-9.12,-380.0
346960.9276,127.673,-350.811,946.781,-507.5,2887.5,-472.5,68.4,-12.16,-383.04
346960.9776,130.967,-347.578,943.975,157.5,2756.25,-341.25,54.72,-6.08,-364.8
346961.0276,129.32,-348.493,943.853,-262.5,2730.0,-647.5,53.2,-10.64,-389.12
346961.0776,128.344,-358.985,942.694,17.5,2380.0,-796.25,62.32,-12.16,-381.52
346961.1276,127.551,-347.822,942.816,131.25,2983.75,-358.75,72.96,-6.08,-383.04
346961.1776,134.078,-340.502,949.282,-533.75,2957.5,-1470.0,66.88,-3.04,-386.08
346961.2276,126.026,-356.667,939.705,-586.25,2992.5,-533.75,66.88,-12.16,-372.4
346961.2776,121.573,-355.203,943.426,43.75,2703.75,-122.5,63.84,-9.12,-372.4
346961.3276,132.736,-354.532,945.683,-708.75,2231.25,-131.25,68.4,-3.04,-386.08
346961.3778,134.444,-351.909,943.731,-288.75,2826.25,-393.75,69.92,-4.56,-386.08
346961.4276,127.612,-356.911,942.45,-131.25,3333.75,-1198.75,54.72,-3.04,-392.16
346961.4776,126.941,-354.166,948.916,-490.0,2502.5,-402.5,65.36,10.64,-383.04
346961.5276,131.821,-354.715,944.341,35.0,2835.0,-717.5,74.48,-16.72,-387.6
346961.5776,128.832,-350.445,948.794,-113.75,2931.25,-1163.75,60.8,-12.16,-381.52
346961.6276,127.246,-352.336,943.487,-236.25,2843.75,-402.5,59.28,-7.6,-381.52
346961.6776,127.185,-350.628,944.829,-61.25,2747.5,0.0,56.24,-10.64,-381.52
346961.7276,129.991,-355.02,946.232,-630.0,2800.0,-778.75,54.72,0.0,-380.0
346961.7776,126.88,-356.545,942.999,105.0,2528.75,-533.75,83.6,-13.68,-375.44
346961.8276,128.771,-346.175,941.84,-8.75,2948.75,-358.75,60.8,-10.64,-370.88
346961.8776,137.799,-332.328,948.672,-332.5,3543.75,-848.75,53.2,-4.56,-364.8
346961.9276,122.427,-362.462,938.607,-2327.5,3876.25,0.0,71.44,-13.68,-361.76
346961.9776,121.939,-363.194,941.108,-516.25,2240.0,201.25,68.4,4.56,-378.48
346962.0276,129.625,-363.316,944.28,-271.25,2318.75,516.25,71.44,-10.64,-376.96
346962.0776,124.684,-365.268,939.4,358.75,2161.25,-813.75,76.0,6.08,-370.88
346962.1276,131.455,-357.521,940.437,927.5,2476.25,-1303.75,51.68,-13.68,-373.92
346962.1776,125.843,-352.092,944.097,455.0,2467.5,-1023.75,62.32,-6.08,-367.84
346962.2276,134.078,-357.155,940.742,253.75,2756.25,-953.75,63.84,-3.04,-378.48
346962.2776,129.686,-355.325,943.914,752.5,3132.5,-1260.0,47.12,-9.12,-387.6
346962.3276,126.087,-360.327,942.328,612.5,2668.75,-236.25,74.48,-6.08,-376.96
346962.3776,131.821,-346.968,943.365,1470.0,2485.0,-411.25,56.24,-4.56,-369.36
346962.4276,129.259,-347.151,942.572,-1828.75,3141.25,-113.75,51.68,-3.04,-370.88
346962.4776,127.246,-359.351,945.805,813.75,2327.5,-708.75,59.28,-4.56,-389.12
346962.5276,129.198,-350.75,941.474,-113.75,2677.5,-463.75,66.88,0.0,-378.48
346962.5776,135.237,-343.308,949.16,-393.75,3430.0,-1671.25,65.36,-10.64,-390.64
346962.6277,125.294,-356.24,941.718,-1373.75,3508.75,-1155.0,51.68,0.0,-369.36
346962.6776,123.098,-359.107,936.045,140.0,2065.0,-647.5,71.44,-6.08,-375.44
346962.7276,134.139,-351.177,944.768,-271.25,1793.75,323.75,68.4,-4.56,-378.48
346962.7776,131.272,-360.632,941.596,-770.0,3255.0,-210.0,66.88,3.04,-378.48
346962.8276,132.675,-357.887,940.62,428.75,3500.0,-1190.0,60.8,-3.04,-390.64
346962.8776,127.429,-351.299,948.367,463.75,3097.5,-770.0,59.28,-12.16,-380.0
346962.9276,128.161,-359.351,943.06,612.5,2913.75,-1128.75,56.24,-7.6,-363.28
346962.9776,130.479,-348.371,941.779,253.75,3071.25,-656.25,59.28,-3.04,-373.92
346963.0276,124.013,-351.299,944.036,-341.25,2625.0,-376.25,57.76,-9.12,-381.52
346963.0776,133.895,-351.726,941.169,35.0,2581.25,-603.75,56.24,-6.08,-383.04
346963.1276,126.819,-351.787,942.999,-743.75,2765.0,-437.5,60.8,-6.08,-387.6
346963.1776,123.708,-361.547,942.267,-78.75,2441.25,-218.75,62.32,-12.16,-381.52
346963.2276,131.76,-357.094,940.498,35.0,2642.5,-542.5,66.88,0.0,-373.92
346963.2776,136.823,-345.565,944.89,253.75,3465.0,-962.5,65.36,-4.56,-372.4
346963.3276,126.27,-363.011,943.426,-682.5,2870.0,-630.0,77.52,-6.08,-378.48
346963.3776,126.819,-356.545,938.424,472.5,2703.75,-533.75,69.92,-4.56,-387.6
346963.4276,130.906,-352.946,943.182,-341.25,2467.5,-175.0,69.92,-6.08,-381.52
346963.4776,132.919,-358.802,941.474,-323.75,3132.5,-350.0,72.96,-6.08,-384.56
346963.5276,133.041,-355.203,939.034,-140.0,2966.25,-1041.25,66.88,-6.08,-390.64
346963.5776,130.906,-344.162,945.012,-428.75,2642.5,-463.75,48.64,-18.24,-375.44
346963.6276,132.858,-363.011,941.84,-113.75,2782.5,-892.5,54.72,-9.12,-375.44
346963.6776,128.039,-353.861,942.45,-52.5,3255.0,-603.75,56.24,-3.04,-380.0
346963.7276,124.196,-354.715,944.524,-227.5,2905.0,-446.25,59.28,-7.6,-373.92
346963.7776,131.272,-355.935,941.169,-157.5,2668.75,-332.5,69.92,-9.12,-372.4
346963.8276,131.943,-352.397,941.962,-857.5,3053.75,-525.0,74.48,-19.76,-376.96
346963.8776,128.466,-366.671,942.572,-437.5,2878.75,-761.25,59.28,-7.6,-380.0
346963.9276,131.882,-352.397,936.228,26.25,2660.0,-201.25,62.32,-6.08,-383.04
346963.9776,132.553,-355.63,942.572,1137.5,2572.5,-787.5,69.92,-3.04,-386.08
346964.0276,128.527,-354.532,939.583,-1120.0,3053.75,-245.0,69.92,-4.56,-375.44
346964.0776,124.257,-358.192,941.108,297.5,2703.75,-805.0,76.0,4.56,-376.96
346964.1276,130.723,-354.532,944.524,-551.25,2310.0,-280.0,63.84,1.52,-369.36
346964.1776,129.808,-361.669,941.962,-271.25,3167.5,-393.75,59.28,-7.6,-380.0
346964.2276,129.625,-362.767,942.389,752.5,2835.0,-848.75,62.32,-6.08,-393.68
346964.2776,125.599,-349.957,944.585,-105.0,2791.25,-612.5,63.84,1.52,-396.72
346964.3276,131.089,-360.632,941.474,0.0,2511.25,-393.75,63.84,-6.08,-373.92
346964.3776,130.967,-348.066,940.437,341.25,3027.5,-778.75,66.88,-24.32,-363.28
346964.4276,125.599,-356.057,943.243,-280.0,2782.5,-595.0,63.84,-18.24,-375.44
346964.4778,127.551,-358.253,938.424,-52.5,2502.5,-385.0,63.84,-6.08,-372.4
346964.5276,132.431,-353.617,939.827,-323.75,2852.5,-96.25,71.44,-6.08,-378.48
346964.5777,125.538,-362.462,941.84,-568.75,2791.25,-323.75,68.4,-3.04,-376.96
346964.6276,132.065,-355.874,940.864,-840.0,2843.75,-551.25,77.52,3.04,-370.88
346964.6776,136.701,-353.617,947.452,385.0,3246.25,-953.75,59.28,-9.12,-375.44
346964.7276,127.307,-357.643,944.89,-1137.5,3316.25,-393.75,65.36,-9.12,-364.8
346964.7776,126.636,-360.144,937.326,315.0,2747.5,-743.75,68.4,-9.12,-381.52
346964.8276,131.76,-360.205,938.302,113.75,2406.25,-183.75,60.8,-6.08,-392.16
346964.8776,132.126,-356.484,942.572,638.75,2703.75,52.5,60.8,6.08,-376.96
346964.9276,137.494,-354.349,941.23,280.0,2887.5,-1470.0,68.4,-6.08,-380.0
346964.9776,130.723,-350.567,944.768,-96.25,3185.0,-1023.75,79.04,3.04,-378.48
346965.0276,129.869,-356.85,941.962,253.75,2415.0,-630.0,69.92,-3.04,-381.52
346965.0776,129.808,-353.983,940.986,280.0,2730.0,-936.25,69.92,-4.56,-381.52
346965.1276,129.076,-354.227,940.986,78.75,2607.5,-262.5,62.32,-4.56,-383.04
346965.1776,129.442,-355.63,942.145,87.5,2283.75,-96.25,63.84,3.04,-383.04
346965.2276,135.481,-359.534,943.243,-525.0,2791.25,-367.5,68.4,-12.16,-375.44
346965.2777,129.93,-359.351,941.474,262.5,2800.0,-936.25,66.88,-3.04,-361.76
346965.3276,133.041,-358.863,938.485,-568.75,3386.25,-805.0,57.76,-18.24,-384.56
346965.3776,136.335,-351.726,945.866,-280.0,3570.0,-953.75,74.48,4.56,-367.84
346965.4276,125.599,-364.231,942.023,-735.0,2467.5,-332.5,68.4,0.0,-390.64
346965.4776,127.917,-355.325,943.06,752.5,2528.75,-341.25,72.96,0.0,-383.04
346965.5276,133.041,-356.606,941.657,-577.5,2353.75,315.0,66.88,-16.72,-376.96
346965.5776,133.468,-358.314,943.792,-201.25,2922.5,-498.75,62.32,-6.08,-378.48
346965.6276,133.529,-357.704,938.912,-498.75,3185.0,-1015.0,50.16,-4.56,-360.24
346965.6776,126.514,-360.632,942.999,-148.75,2992.5,-420.0,69.92,-7.6,-380.0
346965.7276,131.211,-357.094,941.718,148.75,2493.75,-411.25,69.92,-6.08,-384.56
346965.7776,134.261,-352.946,939.705,113.75,3018.75,-1050.0,60.8,-3.04,-370.88
346965.8276,127.307,-357.521,940.559,-525.0,3088.75,-490.0,77.52,-16.72,-378.48
346965.8776,129.015,-352.092,940.498,-61.25,2292.5,-227.5,76.0,-9.12,-375.44
346965.9276,135.298,-358.192,941.596,-411.25,2668.75,-1207.5,72.96,-3.04,-389.12
346965.9776,133.346,-359.29,941.474,35.0,2905.0,-402.5,76.0,4.56,-384.56
346966.0276,127.246,-357.643,940.498,-560.0,2975.0,-367.5,72.96,-4.56,-392.16
346966.0776,137.616,-354.227,944.707,-411.25,3412.5,-1146.25,62.32,0.0,-369.36
346966.1276,123.281,-374.479,940.498,-218.75,2948.75,367.5,63.84,-9.12,-369.36
346966.1776,124.257,-363.804,938.546,1960.0,2231.25,122.5,59.28,-9.12,-373.92
346966.2276,134.993,-351.665,937.509,105.0,2266.25,-113.75,66.88,-6.08,-392.16
346966.2776,130.662,-360.937,936.167,-341.25,2992.5,-682.5,60.8,7.6,-375.44
346966.3276,136.396,-352.702,939.705,-647.5,3220.0,-1365.0,72.96,-3.04,-364.8
346966.3776,126.941,-365.695,945.073,-953.75,2887.5,-638.75,66.88,-6.08,-383.04
346966.4285,126.941,-374.357,942.389,1251.25,2782.5,-516.25,72.96,4.56,-372.4
346966.4776,128.405,-357.582,943.609,1986.25,2756.25,-157.5,72.96,0.0,-386.08
346966.5276,129.686,-347.029,937.326,612.5,2502.5,-997.5,62.32,-3.04,-378.48
346966.5776,130.906,-345.687,938.058,-105.0,2826.25,-525.0,74.48,-4.56,-361.76
346966.6276,127.978,-356.545,941.413,-586.25,2966.25,-183.75,80.56,0.0,-373.92
346966.6776,134.383,-359.9,945.5,-376.25,2703.75,-980.0,59.28,-6.08,-376.96
346966.7276,127.734,-360.51,944.89,-122.5,3001.25,-700.0,54.72,-4.56,-376.96
346966.7776,127.368,-360.144,944.097,-148.75,3176.25,-367.5,68.4,-4.56,-380.0
346966.8276,122.549,-360.815,939.461,1067.5,2450.0,-288.75,65.36,1.52,-360.24
346966.8776,129.747,-350.14,940.803,-183.75,2126.25,-183.75,62.32,-7.6,-383.04
346966.9276,135.542,-349.835,940.315,-87.5,2537.5,-507.5,57.76,0.0,-383.04
346966.9776,126.453,-356.911,942.267,-560.0,2852.5,-708.75,71.44,-16.72,-369.36
346967.0276,130.479,-355.02,943.304,-507.5,3123.75,-1137.5,56.24,-9.12,-383.04
346967.0776,128.527,-363.072,943.06,-315.0,2607.5,-691.25,63.84,1.52,-383.04
346967.1276,132.126,-355.325,940.62,647.5,2625.0,-1076.25,63.84,0.0,-373.92
346967.1776,132.065,-354.288,942.572,-26.25,2677.5,-446.25,62.32,-10.64,-369.36
346967.2276,129.625,-354.654,944.341,-210.0,2493.75,17.5,62.32,-9.12,-381.52
346967.2776,136.03,-360.388,940.01,-831.25,2800.0,-402.5,54.72,9.12,-369.36
346967.3276,131.272,-364.658,947.269,-70.0,3412.5,-848.75,59.28,-6.08,-375.44
346967.3776,127.063,-355.63,939.278,113.75,3193.75,-665.0,54.72,0.0,-396.72
346967.4276,126.697,-355.386,942.267,420.0,2493.75,-665.0,57.76,-12.16,-392.16
346967.4776,125.721,-350.14,949.648,-603.75,2992.5,-813.75,68.4,-7.6,-364.8
346967.5276,127.734,-359.473,935.618,-761.25,2493.75,-358.75,74.48,-6.08,-361.76
346967.5776,128.832,-359.107,938.363,280.0,2213.75,-96.25,60.8,-9.12,-383.04
346967.6276,138.104,-354.227,938.973,-551.25,2765.0,122.5,63.84,7.6,-369.36
346967.6776,134.566,-362.096,938.241,-656.25,2922.5,-113.75,66.88,-6.08,-384.56
346967.7276,129.93,-354.837,944.341,-603.75,3771.25,-1163.75,66.88,3.04,-372.4
346967.7776,125.538,-361.974,944.524,-1128.75,3263.75,-551.25,65.36,-6.08,-370.88
346967.8276,129.137,-367.464,942.389,428.75,2642.5,-1198.75,69.92,-3.04,-376.96
346967.8776,128.527,-359.29,943.121,735.0,2966.25,-682.5,53.2,0.0,-376.96
346967.9276,127.429,-352.214,938.241,280.0,2651.25,-376.25,62.32,1.52,-375.44
346967.9776,129.869,-356.362,941.169,-227.5,2686.25,-1058.75,54.72,-7.6,-383.04
346968.0276,132.553,-360.083,940.864,-533.75,2835.0,-525.0,74.48,-12.16,-375.44
346968.0776,131.516,-364.902,938.119,-350.0,3027.5,-638.75,71.44,-3.04,-372.4
346968.1276,134.688,-353.678,942.938,113.75,3158.75,-1128.75,65.36,1.52,-392.16
346968.1776,129.381,-358.863,943.67,-603.75,2835.0,-420.0,50.16,1.52,-370.88
346968.2276,123.159,-359.595,935.618,-35.0,2353.75,-166.25,62.32,-3.04,-380.0
346968.2776,133.834,-356.118,937.326,78.75,2327.5,70.0,69.92,12.16,-367.84
346968.3276,134.871,-362.401,943.548,-638.75,3211.25,-297.5,76.0,9.12,-384.56
346968.3777,131.028,-364.353,939.156,-35.0,3290.0,-1216.25,68.4,-9.12,-381.52
346968.4276,124.928,-358.436,944.463,218.75,2756.25,-892.5,57.76,1.52,-384.56
346968.4776,132.614,-364.841,937.57,192.5,2668.75,-437.5,63.84,7.6,-383.04
346968.5276,133.224,-357.338,936.472,428.75,2773.75,-490.0,63.84,0.0,-390.64
346968.5776,128.588,-351.299,938.546,-122.5,2607.5,-735.0,60.8,-3.04,-376.96
346968.6276,130.845,-362.828,939.461,-341.25,2826.25,-271.25,69.92,-12.16,-372.4
346968.6776,130.967,-360.815,942.938,131.25,2773.75,-883.75,60.8,1.52,-373.92
346968.7276,133.285,-360.754,938.241,-341.25,2563.75,-262.5,63.84,4.56,-392.16
346968.7776,127.673,-360.449,939.827,297.5,3071.25,-78.75,62.32,1.52,-367.84
346968.8276,132.37,-353.434,947.818,-700.0,3220.0,-892.5,69.92,12.16,-375.44
346968.8776,129.259,-370.453,939.461,-638.75,2730.0,-647.5,68.4,-3.04,-383.04
346968.9276,126.148,-353.19,937.265,428.75,2415.0,-157.5,59.28,-7.6,-370.88
346968.9776,136.945,-359.778,941.657,52.5,2423.75,-533.75,56.24,-9.12,-380.0
346969.0276,132.553,-363.438,937.204,-218.75,2852.5,-481.25,59.28,4.56,-367.84
346969.0776,127.734,-361.73,943.487,-262.5,3263.75,-1050.0,65.36,12.16,-383.04
346969.1276,125.538,-360.876,944.402,-367.5,2327.5,-455.0,74.48,-9.12,-369.36
346969.1776,138.897,-361.547,940.437,743.75,2896.25,-770.0,74.48,10.64,-370.88
346969.2276,129.625,-357.399,936.167,-1067.5,3272.5,-542.5,56.24,0.0,-375.44
346969.2776,129.503,-363.621,938.668,288.75,2940.0,-796.25,60.8,-4.56,-364.8
346969.3276,131.333,-365.817,939.644,-533.75,2712.5,-323.75,57.76,3.04,-392.16
346969.3776,132.614,-370.575,942.023,455.0,2756.25,-428.75,77.52,1.52,-373.92
346969.4276,132.797,-360.022,936.655,140.0,3263.75,-332.5,74.48,-4.56,-380.0
346969.4776,138.409,-354.166,941.291,-192.5,3666.25,-1050.0,48.64,-7.6,-375.44
346969.5276,130.845,-360.51,943.548,-691.25,3211.25,-656.25,65.36,-9.12,-367.84
346969.5776,126.27,-360.815,938.912,875.0,3298.75,-953.75,62.32,-7.6,-375.44
346969.6276,129.625,-359.961,939.583,201.25,2668.75,-140.0,68.4,-4.56,-387.6
346969.6776,131.455,-357.216,939.278,-262.5,2730.0,306.25,65.36,-10.64,-376.96
346969.7276,130.479,-364.597,938.546,-507.5,3062.5,-1155.0,72.96,0.0,-370.88
346969.7776,128.527,-360.327,946.72,122.5,2432.5,-682.5,65.36,-3.04,-367.84
346969.8276,134.688,-366.854,939.705,936.25,2502.5,-665.0,72.96,4.56,-372.4
346969.8776,134.261,-352.214,937.387,280.0,3272.5,-813.75,66.88,-7.6,-381.52
346969.9276,126.392,-355.081,939.644,306.25,3097.5,-980.0,56.24,3.04,-383.04
346969.9776,123.891,-356.728,938.973,288.75,2441.25,-498.75,53.2,-4.56,-372.4
346970.0276,130.662,-363.682,941.474,113.75,2773.75,-122.5,82.08,-4.56,-370.88
346970.0776,131.15,-361.059,936.167,-665.0,3036.25,-691.25,68.4,-10.64,-369.36
346970.1276,134.139,-357.46,945.378,770.0,2782.5,-586.25,59.28,-9.12,-381.52
346970.1776,127.612,-365.329,938.851,-901.25,3368.75,-245.0,66.88,4.56,-381.52
346970.2278,125.416,-368.684,938.18,542.5,3088.75,-1233.75,65.36,-3.04,-369.36
346970.2776,127.734,-357.399,940.132,288.75,2633.75,-245.0,76.0,3.04,-375.44
346970.3278,128.466,-365.878,937.448,262.5,2747.5,-315.0,66.88,-4.56,-381.52
346970.3776,131.821,-356.423,937.753,358.75,2537.5,-1155.0,60.8,-10.64,-367.84
346970.4276,128.222,-361.852,945.5,-140.0,2686.25,-787.5,68.4,-6.08,-395.2
346970.4776,132.248,-358.802,940.62,568.75,2703.75,-822.5,63.84,0.0,-369.36
346970.5276,129.808,-355.813,938.607,210.0,2800.0,-1268.75,65.36,-10.64,-386.08
346970.5776,125.294,-355.996,941.84,17.5,2843.75,-542.5,74.48,-16.72,-369.36
346970.6276,129.869,-361.059,939.217,-376.25,2625.0,-542.5,72.96,-4.56,-381.52
346970.6776,130.723,-361.425,940.437,358.75,2520.0,-507.5,60.8,-3.04,-383.04
346970.7276,136.152,-357.765,939.888,603.75,2957.5,-743.75,51.68,1.52,-370.88
346970.7776,130.357,-354.593,944.28,927.5,2476.25,-980.0,62.32,-7.6,-383.04
346970.8276,127.368,-357.643,940.681,-796.25,3482.5,-656.25,63.84,1.52,-380.0
346970.8776,123.342,-361.303,938.424,-463.75,2773.75,-612.5,48.64,-7.6,-364.8
346970.9276,134.017,-342.027,940.803,-455.0,2152.5,-262.5,68.4,1.52,-381.52
346970.9776,139.08,-342.271,936.472,-3167.5,3132.5,-105.0,68.4,-7.6,-364.8
346971.0276,131.028,-380.762,942.267,-945.0,3141.25,-1365.0,62.32,0.0,-380.0
346971.0776,126.758,-361.852,947.147,-148.75,3036.25,-840.0,60.8,-7.6,-378.48
346971.1276,129.686,-376.736,939.095,8.75,2616.25,-236.25,74.48,3.04,-360.24
346971.1776,131.272,-359.351,939.278,1181.25,2467.5,-490.0,71.44,-4.56,-361.76
346971.2276,129.442,-350.872,939.827,568.75,2817.5,-542.5,72.96,6.08,-380.0
346971.2776,130.662,-356.423,939.034,-656.25,2598.75,-490.0,62.32,-6.08,-381.52
346971.3276,130.967,-360.266,941.657,-936.25,2730.0,-778.75,59.28,-4.56,-367.84
346971.3776,132.553,-366.549,943.487,-253.75,2476.25,-402.5,54.72,-9.12,-375.44
346971.4276,133.102,-367.281,933.056,393.75,3036.25,-708.75,63.84,6.08,-367.84
346971.4776,133.163,-353.617,944.341,113.75,3500.0,-1032.5,79.04,-6.08,-375.44
346971.5276,125.66,-372.1,937.204,-560.0,2572.5,-875.0,65.36,-4.56,-381.52
346971.5776,126.392,-363.987,937.326,1225.0,2625.0,-560.0,56.24,-16.72,-381.52
346971.6276,135.237,-354.349,938.668,-297.5,2555.0,-61.25,57.76,-12.16,-370.88
346971.6776,130.113,-364.414,938.363,-638.75,2388.75,-708.75,60.8,-6.08,-366.32
346971.7276,130.235,-355.508,941.108,-577.5,3290.0,-1347.5,56.24,3.04,-376.96
346971.7776,131.699,-374.174,939.705,-778.75,2336.25,-1242.5,63.84,-3.04,-373.92
346971.8276,136.152,-367.525,934.398,87.5,2668.75,-1023.75,65.36,-13.68,-369.36
346971.8776,130.845,-363.194,939.156,717.5,3167.5,-1120.0,65.36,-3.04,-370.88
346971.9276,129.625,-362.218,936.106,245.0,2861.25,-297.5,66.88,-3.04,-387.6
346971.9776,130.357,-362.157,938.241,-481.25,2668.75,-140.0,74.48,-4.56,-376.96
346972.0276,131.333,-367.647,938.729,-87.5,2625.0,-507.5,69.92,6.08,-361.76
346972.0776,136.457,-364.719,939.4,-87.5,3430.0,-393.75,77.52,-12.16,-372.4
346972.1276,132.553,-353.739,942.45,498.75,3360.0,-1137.5,51.68,-7.6,-375.44
346972.1777,128.161,-365.756,941.108,-1233.75,3027.5,-787.5,63.84,-4.56,-373.92
346972.2276,127.856,-368.928,935.313,-437.5,2817.5,-612.5,66.88,0.0,-378.48
346972.2776,129.991,-359.046,941.352,-367.5,2371.25,-227.5,69.92,-13.68,-375.44
346972.3276,132.919,-366.366,941.535,-1146.25,2887.5,-1198.75,68.4,6.08,-381.52
346972.3776,132.492,-371.429,940.376,1128.75,2870.0,-332.5,82.08,1.52,-363.28
346972.4276,128.71,-360.327,941.474,-175.0,2441.25,-1233.75,59.28,0.0,-376.96
346972.4776,137.677,-364.292,936.594,350.0,2616.25,-1286.25,65.36,-4.56,-384.56
346972.5276,132.004,-358.497,938.485,367.5,3298.75,-700.0,60.8,6.08,-373.92
346972.5776,126.514,-358.619,939.217,-288.75,2983.75,-953.75,71.44,-7.6,-372.4
346972.6276,131.455,-361.242,938.546,-245.0,2616.25,-376.25,69.92,12.16,-370.88
346972.6776,129.869,-369.172,940.193,-367.5,3010.0,-612.5,69.92,-16.72,-370.88
346972.7276,127.856,-369.721,937.57,-70.0,2423.75,-638.75,69.92,3.04,-378.48
346972.7776,131.272,-363.804,935.374,140.0,3298.75,-857.5,59.28,-10.64,-381.52
346972.8276,136.274,-355.935,940.742,420.0,3255.0,-1986.25,71.44,-6.08,-372.4
346972.8776,125.904,-366.854,937.631,-1146.25,3403.75,-673.75,72.96,6.08,-381.52
346972.9276,124.074,-367.952,938.18,507.5,2730.0,-831.25,66.88,4.56,-355.68
346972.9776,132.858,-362.706,939.278,-332.5,2502.5,122.5,69.92,-9.12,-383.04
346973.0276,130.357,-368.867,936.289,-140.0,2738.75,-586.25,53.2,6.08,-387.6
346973.0776,137.555,-368.867,935.435,-96.25,3395.0,-945.0,59.28,-3.04,-389.12
346973.1276,124.196,-356.301,942.877,621.25,2870.0,1207.5,74.48,3.04,-373.92
346973.1776,124.928,-367.586,940.193,148.75,2450.0,245.0,50.16,0.0,-370.88
346973.2276,134.566,-360.571,937.631,638.75,2808.75,-796.25,79.04,-10.64,-364.8
346973.2776,128.161,-361.425,935.435,-271.25,2415.0,253.75,62.32,0.0,-381.52
346973.3276,134.383,-362.645,935.496,-463.75,2117.5,-595.0,60.8,0.0,-375.44
346973.3776,131.76,-364.048,940.193,-393.75,3027.5,-918.75,68.4,0.0,-383.04
346973.4276,126.758,-369.172,939.217,-297.5,2677.5,-1093.75,66.88,3.04,-367.84
346973.4776,132.98,-364.292,935.862,-201.25,2992.5,-665.0,57.76,0.0,-383.04
346973.5276,133.59,-352.519,944.707,-691.25,3377.5,-910.0,66.88,6.08,-378.48
346973.5776,127.185,-365.939,935.984,-2117.5,2756.25,-1146.25,68.4,-3.04,-363.28
346973.6276,135.054,-371.917,932.995,-1041.25,2091.25,-2353.75,62.32,4.56,-381.52
346973.6776,142.801,-372.222,937.387,52.5,3202.5,-245.0,74.48,1.52,-376.96
346973.7276,126.453,-367.952,934.337,-945.0,2782.5,-612.5,59.28,-10.64,-355.68
346973.7776,132.309,-369.233,940.803,516.25,3491.25,-1443.75,56.24,-3.04,-364.8
346973.8276,126.514,-364.414,942.877,-323.75,2957.5,638.75,59.28,-4.56,-383.04
346973.8776,124.928,-371.734,940.193,358.75,2345.0,-52.5,53.2,-6.08,-373.92
346973.9276,132.98,-367.952,937.143,498.75,2275.0,-883.75,71.44,6.08,-373.92
346973.9776,131.516,-362.157,935.252,192.5,2975.0,-148.75,66.88,-9.12,-372.4
346974.0278,132.492,-369.477,934.154,218.75,2721.25,-840.0,56.24,-9.12,-376.96
346974.0776,126.758,-367.037,936.838,192.5,2493.75,1277.5,77.52,-3.04,-373.92
346974.1276,127.063,-368.44,941.718,376.25,1207.5,376.25,60.8,9.12,-367.84
346974.1776,140.666,-364.902,935.923,-17.5,1933.75,-918.75,59.28,10.64,-378.48
346974.2276,140.666,-364.048,939.644,621.25,3403.75,-280.0,68.4,3.04,-369.36
346974.2776,128.893,-356.057,942.206,-787.5,2782.5,-1190.0,68.4,4.56,-378.48
346974.3276,137.189,-373.381,930.982,-288.75,3298.75,-1470.0,59.28,-3.04,-373.92
346974.3776,127.978,-364.292,939.278,-472.5,2992.5,131.25,69.92,-7.6,-381.52
346974.4276,128.466,-372.344,934.52,-1461.25,3027.5,-315.0,56.24,0.0,-384.56
346974.4776,137.86,-372.161,935.618,350.0,3193.75,-1076.25,72.96,4.56,-360.24
346974.5276,127.368,-371.49,936.533,-96.25,3316.25,-945.0,60.8,0.0,-369.36
346974.5776,136.213,-372.893,935.557,-586.25,2835.0,-1172.5,69.92,3.04,-380.0
346974.6276,128.771,-371.307,939.4,892.5,3517.5,-1531.25,59.28,6.08,-366.32
346974.6776,125.599,-366.915,940.01,1400.0,2800.0,-1312.5,66.88,-4.56,-384.56
346974.7276,132.553,-363.926,934.459,813.75,2310.0,-297.5,63.84,-4.56,-373.92
346974.7776,130.479,-366.915,935.801,542.5,2581.25,-253.75,66.88,-3.04,-361.76
346974.8276,131.333,-359.9,937.265,297.5,2616.25,-691.25,62.32,-9.12,-383.04
346974.8776,135.664,-364.658,934.276,-201.25,3167.5,-17.5,50.16,7.6,-376.96
346974.9276,135.359,-364.902,939.156,1277.5,2485.0,-726.25,62.32,-7.6,-376.96
346974.9776,130.662,-361.974,939.095,-962.5,4357.5,-1128.75,66.88,-6.08,-376.96
346975.0276,120.414,-369.477,933.666,-577.5,3281.25,-630.0,83.6,-3.04,-372.4
346975.0776,128.893,-358.985,939.766,-446.25,2257.5,-183.75,62.32,1.52,-363.28
346975.1276,135.054,-366.61,934.581,-953.75,3106.25,-245.0,80.56,-3.04,-370.88
346975.1776,132.98,-371.734,935.008,-1128.75,2450.0,-866.25,82.08,4.56,-383.04
346975.2276,131.699,-373.442,942.816,140.0,3377.5,-1242.5,59.28,-3.04,-373.92
346975.2776,128.832,-368.379,939.583,752.5,2721.25,-752.5,76.0,-3.04,-369.36
346975.3276,129.442,-358.863,937.143,402.5,3150.0,-1391.25,60.8,1.52,-373.92
346975.3776,127.307,-364.597,937.021,26.25,3298.75,-323.75,69.92,-4.56,-367.84
346975.4276,124.257,-359.534,937.326,-612.5,2450.0,-332.5,53.2,12.16,-375.44
346975.4776,132.98,-370.392,938.302,-962.5,3010.0,-455.0,62.32,-10.64,-378.48
346975.5276,129.991,-372.405,938.851,-315.0,2957.5,-953.75,62.32,3.04,-378.48
346975.5776,131.882,-361.303,937.936,306.25,2817.5,-735.0,72.96,-4.56,-376.96
346975.6276,129.503,-365.024,939.034,210.0,2292.5,-411.25,72.96,-4.56,-361.76
346975.6776,132.004,-361.669,942.938,-1181.25,2887.5,-735.0,54.72,-4.56,-360.24
346975.7276,129.869,-375.028,934.154,43.75,2738.75,-315.0,63.84,-4.56,-378.48
346975.7776,129.93,-365.024,935.069,262.5,2240.0,-542.5,57.76,-7.6,-383.04
346975.8276,143.838,-376.004,935.862,490.0,3360.0,-332.5,71.44,0.0,-370.88
346975.8778,130.296,-367.647,936.838,-8.75,3578.75,-700.0,63.84,1.52,-367.84
346975.9276,126.941,-366.61,937.631,376.25,3237.5,-1951.25,60.8,10.64,-375.44
346975.9777,126.514,-367.952,939.827,402.5,2502.5,-962.5,63.84,-3.04,-373.92
346976.0276,128.832,-363.072,937.814,-35.0,2756.25,-892.5,57.76,-3.04,-392.16
346976.0776,130.784,-371.856,939.827,-140.0,2590.0,-813.75,66.88,3.04,-375.44
346976.1276,133.285,-372.588,939.888,1128.75,2870.0,-813.75,74.48,6.08,-376.96
346976.1776,133.285,-365.939,935.496,-455.0,3088.75,-822.5,69.92,0.0,-372.4
346976.2276,128.161,-364.963,940.437,-52.5,3115.0,-1181.25,59.28,-9.12,-366.32
346976.2776,129.686,-367.159,937.875,595.0,2196.25,-1137.5,66.88,-6.08,-383.04
346976.3276,130.723,-362.706,935.313,-122.5,2598.75,288.75,66.88,-12.16,-380.0
346976.3776,135.42,-359.961,943.243,498.75,2747.5,-673.75,63.84,4.56,-370.88
346976.4276,129.808,-369.477,936.777,-988.75,2721.25,-350.0,65.36,-3.04,-378.48
346976.4776,130.845,-366.122,936.411,227.5,2537.5,-700.0,62.32,1.52,-380.0
346976.5276,134.017,-358.802,938.546,-420.0,2633.75,-96.25,74.48,-7.6,-380.0
346976.5776,130.845,-378.932,936.655,-533.75,2975.0,-262.5,63.84,4.56,-367.84
346976.6276,132.736,-365.878,939.217,148.75,2800.0,-901.25,60.8,0.0,-381.52
346976.6776,128.832,-363.316,941.535,245.0,2266.25,-621.25,76.0,-6.08,-380.0
346976.7276,136.518,-370.392,934.642,472.5,2747.5,-516.25,65.36,4.56,-378.48
346976.7776,135.664,-361.242,937.143,411.25,2913.75,-901.25,59.28,4.56,-360.24
346976.8276,129.381,-359.473,938.119,-612.5,2808.75,-402.5,59.28,7.6,-390.64
346976.8776,132.309,-367.83,934.398,-752.5,2817.5,52.5,68.4,0.0,-373.92
346976.9276,131.028,-376.736,940.742,-78.75,2572.5,-498.75,76.0,-9.12,-369.36
346976.9776,134.993,-364.841,935.557,323.75,2213.75,-297.5,79.04,1.52,-375.44
346977.0276,132.492,-366.427,934.093,560.0,2843.75,-218.75,65.36,3.04,-375.44
346977.0776,137.738,-357.155,940.742,-201.25,3386.25,-997.5,69.92,-7.6,-380.0
346977.1276,130.723,-367.159,936.655,-1181.25,2765.0,-341.25,79.04,0.0,-383.04
346977.1776,130.479,-369.416,935.862,612.5,2633.75,-883.75,71.44,1.52,-367.84
346977.2276,134.749,-360.693,938.79,157.5,2275.0,-446.25,71.44,-4.56,-375.44
346977.2776,132.126,-370.392,932.69,-577.5,2966.25,-140.0,63.84,-7.6,-367.84
346977.3276,133.224,-370.026,937.631,367.5,3342.5,-1505.0,56.24,1.52,-372.4
346977.3776,130.723,-361.73,942.511,-297.5,2563.75,-822.5,62.32,1.52,-376.96
346977.4276,137.555,-370.026,937.631,568.75,2668.75,-402.5,56.24,-7.6,-381.52
346977.4776,131.821,-363.804,935.557,332.5,3255.0,-901.25,62.32,-4.56,-370.88
346977.5276,129.076,-358.497,937.631,-586.25,2905.0,-533.75,69.92,-7.6,-364.8
346977.5776,136.091,-366.671,938.668,-717.5,2598.75,-105.0,63.84,-3.04,-358.72
346977.6276,134.2,-373.381,937.57,-945.0,2852.5,-455.0,68.4,-15.2,-376.96
346977.6776,131.699,-369.172,937.448,428.75,2292.5,-595.0,63.84,7.6,-381.52
346977.7276,136.213,-367.708,931.958,577.5,2537.5,-280.0,60.8,-3.04,-369.36
346977.7776,136.884,-357.643,943.243,-148.75,3578.75,-743.75,56.24,3.04,-370.88
346977.8277,133.285,-381.616,936.838,-446.25,2703.75,-866.25,60.8,-3.04,-376.96
346977.8776,132.248,-367.83,932.446,735.0,3062.5,-621.25,48.64,4.56,-372.4
346977.9276,132.797,-365.512,939.644,35.0,2721.25,-201.25,66.88,-3.04,-369.36
346977.9776,133.102,-366.488,934.398,-822.5,3281.25,-280.0,54.72,-7.6,-349.6
346978.0276,133.895,-366.061,937.265,105.0,3561.25,-971.25,66.88,-3.04,-366.32
346978.0776,130.052,-370.331,941.596,-122.5,2432.5,-297.5,68.4,4.56,-373.92
346978.1276,135.603,-370.209,935.191,-236.25,2747.5,-507.5,76.0,-12.16,-375.44
346978.1776,133.529,-365.207,936.167,201.25,3123.75,-936.25,60.8,3.04,-387.6
346978.2276,130.784,-366.427,937.387,-516.25,3237.5,-770.0,50.16,0.0,-378.48
346978.2776,133.712,-367.098,938.302,70.0,2940.0,-603.75,76.0,0.0,-355.68
346978.3276,129.015,-370.575,935.984,323.75,3018.75,-490.0,76.0,-10.64,-386.08
346978.3776,130.601,-367.403,939.095,113.75,2581.25,-595.0,63.84,1.52,-366.32
346978.4276,131.943,-364.536,934.642,87.5,2537.5,-253.75,74.48,4.56,-370.88
346978.4776,138.165,-357.765,941.779,17.5,3193.75,-595.0,60.8,-10.64,-361.76
346978.5276,124.684,-374.906,934.581,-490.0,2861.25,-586.25,57.76,-6.08,-370.88
346978.5776,124.867,-370.758,936.655,385.0,2511.25,-332.5,47.12,3.04,-389.12
346978.6276,133.041,-363.56,936.533,35.0,2458.75,-96.25,68.4,-7.6,-358.72
346978.6776,128.405,-376.858,935.374,-647.5,2590.0,-621.25,72.96,-15.2,-369.36
346978.7276,134.627,-372.588,933.056,-87.5,3123.75,-1225.0,63.84,10.64,-383.04
346978.7776,131.15,-368.928,938.851,402.5,2668.75,-752.5,62.32,1.52,-378.48
346978.8276,131.577,-364.963,935.13,1032.5,2913.75,-805.0,76.0,-4.56,-378.48
346978.8776,130.418,-366.61,935.008,367.5,3185.0,-962.5,76.0,-7.6,-376.96
346978.9276,128.832,-361.303,937.387,297.5,2800.0,-787.5,57.76,-4.56,-370.88
346978.9776,131.272,-361.486,936.777,-638.75,2913.75,-857.5,71.44,0.0,-381.52
346979.0276,130.357,-373.686,938.729,271.25,2756.25,-717.5,74.48,-15.2,-376.96
346979.0776,129.93,-370.148,935.252,175.0,2765.0,-525.0,65.36,-4.56,-381.52
346979.1276,126.209,-365.146,937.509,87.5,2450.0,-533.75,69.92,1.52,-361.76
346979.1776,131.272,-361.791,941.23,-953.75,3106.25,-568.75,63.84,1.52,-363.28
346979.2276,125.538,-374.784,935.313,-472.5,2651.25,-411.25,56.24,3.04,-369.36
346979.2776,131.333,-360.571,936.899,315.0,2213.75,-350.0,66.88,-12.16,-381.52
346979.3276,135.237,-367.708,936.716,-218.75,2432.5,78.75,56.24,-4.56,-384.56
346979.3776,130.54,-375.76,935.191,463.75,2703.75,-630.0,71.44,-6.08,-375.44
346979.4276,133.712,-369.111,937.753,411.25,3368.75,-1225.0,69.92,-3.04,-376.96
346979.4776,129.747,-360.998,944.89,875.0,2563.75,-682.5,63.84,4.56,-375.44
346979.5276,132.187,-368.196,935.069,-122.5,2800.0,-1058.75,60.8,-4.56,-366.32
346979.5776,135.725,-352.031,937.326,-997.5,3045.0,-708.75,74.48,1.52,-387.6
346979.6276,130.174,-371.795,937.814,-122.5,2887.5,-603.75,76.0,-9.12,-376.96
346979.6776,135.359,-372.039,936.594,-87.5,2887.5,-673.75,63.84,-9.12,-370.88
346979.7276,131.76,-372.283,939.888,253.75,2913.75,-813.75,54.72,-3.04,-372.4
346979.7777,129.686,-368.501,938.058,1128.75,2292.5,-1032.5,62.32,-7.6,-367.84
346979.8276,136.945,-357.338,932.751,-105.0,2660.0,-481.25,60.8,7.6,-383.04
346979.8776,137.25,-355.752,941.169,-122.5,3517.5,-1023.75,72.96,-6.08,-376.96
346979.9276,127.673,-374.723,936.838,-1181.25,2773.75,-945.0,72.96,-7.6,-363.28
346979.9776,131.577,-375.333,934.581,822.5,3062.5,-1093.75,76.0,6.08,-361.76
346980.0276,134.871,-360.754,937.143,-778.75,2668.75,43.75,68.4,9.12,-376.96
346980.0776,133.895,-366.244,935.008,-717.5,3123.75,-262.5,69.92,-3.04,-381.52
346980.1276,134.993,-371.063,937.997,61.25,2975.0,-1277.5,60.8,12.16,-381.52
346980.1776,129.869,-364.109,941.962,-218.75,3193.75,-708.75,65.36,1.52,-376.96
346980.2276,136.03,-373.015,935.984,17.5,2485.0,-437.5,72.96,-6.08,-372.4
346980.2776,137.006,-364.719,936.289,262.5,3167.5,-1032.5,62.32,12.16,-361.76
346980.3276,128.649,-369.294,936.106,-87.5,3246.25,-761.25,56.24,-3.04,-372.4
346980.3776,132.797,-368.623,936.96,-70.0,2283.75,-218.75,63.84,-9.12,-375.44
346980.4276,135.847,-369.355,935.252,-420.0,2887.5,-367.5,72.96,-7.6,-381.52
346980.4776,133.712,-368.501,936.899,148.75,2931.25,-1067.5,65.36,-3.04,-351.12
346980.5276,135.237,-361.73,938.302,778.75,2476.25,-822.5,66.88,-10.64,-369.36
346980.5776,133.529,-364.231,932.141,-96.25,3027.5,-148.75,72.96,9.12,-366.32
346980.6276,132.431,-362.523,943.609,-673.75,3561.25,-700.0,66.88,3.04,-369.36
346980.6776,128.71,-374.845,937.936,-910.0,2975.0,-472.5,54.72,6.08,-370.88
346980.7276,131.455,-364.231,932.141,-288.75,2913.75,-148.75,66.88,12.16,-375.44
346980.7776,138.592,-375.394,938.851,376.25,3036.25,35.0,74.48,1.52,-383.04
346980.8276,132.858,-366.305,933.117,-988.75,3255.0,-385.0,59.28,10.64,-367.84
346980.8776,145.363,-368.867,934.276,-105.0,4147.5,-1338.75,63.84,-7.6,-370.88
346980.9276,125.355,-368.074,942.45,-17.5,4287.5,-647.5,62.32,-10.64,-376.96
346980.9776,125.721,-373.076,935.313,183.75,2695.0,-717.5,60.8,3.04,-366.32
346981.0276,131.943,-370.636,937.631,-218.75,3062.5,-332.5,62.32,4.56,-381.52
346981.0776,128.588,-368.135,934.154,-306.25,3255.0,-166.25,69.92,-13.68,-360.24
346981.1276,131.943,-374.906,938.973,-140.0,3010.0,-647.5,74.48,6.08,-355.68
346981.1776,129.198,-374.845,939.217,-533.75,3141.25,-691.25,79.04,1.52,-383.04
346981.2276,127.002,-372.893,937.509,691.25,2721.25,-717.5,57.76,-3.04,-363.28
346981.2776,128.039,-365.817,932.568,700.0,2738.75,-446.25,76.0,-6.08,-378.48
346981.3276,130.662,-356.362,937.387,376.25,2415.0,-437.5,72.96,-3.04,-369.36
346981.3776,126.27,-370.148,937.57,-883.75,2861.25,-560.0,71.44,1.52,-375.44
346981.4276,127.063,-371.246,929.518,43.75,2695.0,-603.75,59.28,-6.08,-376.96
346981.4776,131.882,-374.418,936.106,-770.0,2563.75,-17.5,60.8,7.6,-378.48
346981.5276,131.394,-377.956,935.496,-280.0,2773.75,-1050.0,63.84,15.2,-380.0
346981.5776,129.93,-381.25,931.104,288.75,2607.5,-1295.0,72.96,0.0,-380.0
346981.6278,124.318,-364.414,941.901,-105.0,2826.25,-1032.5,71.44,-3.04,-355.68
346981.6776,128.344,-373.747,933.849,87.5,2143.75,-262.5,68.4,-7.6,-363.28
346981.7277,132.98,-369.66,934.886,1181.25,2345.0,-857.5,62.32,1.52,-378.48
346981.7776,134.261,-363.438,937.143,533.75,2765.0,-621.25,71.44,1.52,-380.0
346981.8276,130.601,-369.172,935.13,70.0,2520.0,-446.25,68.4,-3.04,-370.88
346981.8776,133.712,-366.61,936.411,-376.25,3018.75,-778.75,76.0,-4.56,-376.96
346981.9276,129.869,-373.137,938.973,-726.25,2730.0,-805.0,66.88,6.08,-380.0
346981.9776,130.479,-371.063,936.228,953.75,2170.0,-630.0,68.4,9.12,-378.48
346982.0276,133.102,-366.366,931.592,61.25,2563.75,-376.25,60.8,-10.64,-369.36
346982.0776,135.481,-359.961,941.596,148.75,3167.5,-927.5,62.32,4.56,-378.48
346982.1276,123.098,-377.102,934.52,-1312.5,3220.0,-813.75,63.84,-4.56,-376.96
346982.1776,127.856,-375.272,933.117,323.75,2695.0,-796.25,68.4,-4.56,-360.24
346982.2276,130.052,-367.952,936.838,-210.0,2598.75,-420.0,72.96,-4.56,-366.32
346982.2776,135.115,-375.699,934.032,-253.75,3036.25,-525.0,68.4,7.6,-383.04
346982.3276,131.882,-370.453,933.239,638.75,2800.0,-1408.75,66.88,12.16,-375.44
346982.3776,128.527,-368.013,940.559,26.25,2598.75,-516.25,86.64,-3.04,-378.48
346982.4276,133.041,-369.05,933.91,367.5,2388.75,-665.0,76.0,4.56,-354.16
346982.4776,131.15,-368.379,935.313,-122.5,2730.0,-682.5,72.96,0.0,-367.84
346982.5276,131.394,-368.135,936.96,140.0,2948.75,-577.5,57.76,4.56,-370.88
346982.5776,128.954,-370.575,937.143,656.25,2345.0,-542.5,60.8,1.52,-378.48
346982.6276,137.677,-375.455,938.241,35.0,3053.75,-945.0,57.76,1.52,-354.16
346982.6776,132.858,-371.673,936.35,8.75,2835.0,-647.5,62.32,-4.56,-370.88
346982.7276,129.625,-363.316,937.753,560.0,2327.5,-603.75,59.28,-3.04,-366.32
346982.7776,135.054,-363.194,932.385,-717.5,2642.5,87.5,59.28,-10.64,-372.4
346982.8276,136.518,-364.536,938.363,428.75,3535.0,-866.25,57.76,0.0,-373.92
346982.8776,128.649,-376.492,935.984,-1312.5,2625.0,-901.25,68.4,4.56,-373.92
346982.9276,131.028,-376.248,933.849,481.25,2826.25,-805.0,60.8,-4.56,-364.8
346982.9776,134.017,-364.902,936.35,-52.5,2458.75,-43.75,68.4,0.0,-367.84
346983.0276,137.372,-371.734,935.496,-612.5,3141.25,-621.25,68.4,0.0,-370.88
346983.0776,133.895,-362.462,936.228,-472.5,3342.5,-1015.0,57.76,0.0,-376.96
346983.1276,129.015,-367.464,935.435,-778.75,3036.25,-428.75,56.24,-3.04,-383.04
346983.1776,139.202,-378.139,934.459,288.75,2598.75,-323.75,71.44,-4.56,-369.36
346983.2276,132.004,-369.172,934.032,-551.25,3447.5,-463.75,68.4,-4.56,-367.84
346983.2776,132.309,-365.878,934.764,-463.75,3220.0,-288.75,62.32,6.08,-369.36
346983.3276,135.054,-374.723,935.923,35.0,2458.75,-271.25,57.76,-3.04,-375.44
346983.3776,135.725,-366.122,935.801,-393.75,3395.0,-96.25,72.96,3.04,-367.84
346983.4276,129.503,-378.993,937.57,-105.0,2572.5,-910.0,79.04,3.04,-383.04
346983.4776,136.884,-369.294,935.252,560.0,2800.0,-700.0,76.0,3.04,-370.88
346983.5276,131.943,-365.329,934.459,-183.75,3412.5,-183.75,69.92,9.12,-369.36
346983.5778,130.906,-363.255,942.023,-1006.25,3491.25,-638.75,60.8,4.56,-372.4
346983.6276,124.135,-381.86,935.008,-778.75,2931.25,-446.25,59.28,7.6,-378.48
346983.6777,125.233,-367.22,935.618,183.75,2931.25,-166.25,74.48,10.64,-383.04
346983.7276,135.115,-374.174,936.167,-385.0,2686.25,-411.25,59.28,7.6,-378.48
346983.7776,132.004,-371.368,932.568,-201.25,3158.75,-1190.0,68.4,-6.08,-364.8
346983.8276,129.808,-367.342,938.607,-708.75,3150.0,-1496.25,62.32,7.6,-372.4
346983.8776,124.989,-371.917,936.899,-1461.25,2458.75,-271.25,63.84,3.04,-380.0
346983.9276,135.542,-381.86,935.618,-52.5,2843.75,-735.0,65.36,-6.08,-378.48
346983.9776,127.978,-369.172,936.35,831.25,3045.0,-805.0,66.88,-3.04,-369.36
346984.0276,127.429,-369.538,932.812,175.0,2598.75,-376.25,69.92,-3.04,-370.88
346984.0776,134.444,-372.71,934.764,297.5,2406.25,-8.75,63.84,6.08,-386.08
346984.1276,132.919,-378.81,935.862,288.75,2756.25,-761.25,71.44,-13.68,-376.96
346984.1776,131.15,-368.501,934.337,1050.0,2616.25,-945.0,60.8,4.56,-361.76
346984.2276,128.649,-367.708,930.555,551.25,2896.25,-945.0,76.0,0.0,-372.4
346984.2776,136.335,-365.695,939.888,516.25,2957.5,-1233.75,66.88,7.6,-369.36
346984.3276,128.344,-376.919,932.873,-192.5,3202.5,-638.75,48.64,9.12,-370.88
346984.3776,128.344,-373.747,933.666,638.75,2852.5,-700.0,59.28,-3.04,-370.88
346984.4276,133.651,-367.22,935.069,-463.75,2222.5,35.0,54.72,0.0,-358.72
346984.4776,138.775,-373.32,933.361,96.25,2625.0,-507.5,62.32,1.52,-361.76
346984.5276,136.579,-373.503,935.252,-113.75,3193.75,-1391.25,65.36,0.0,-369.36
346984.5776,128.466,-370.209,940.132,-61.25,2966.25,-936.25,60.8,-3.04,-370.88
346984.6276,129.625,-373.686,936.35,796.25,2686.25,-682.5,59.28,0.0,-381.52
346984.6776,131.638,-365.756,931.958,-315.0,2870.0,-778.75,65.36,4.56,-363.28
346984.7276,130.723,-369.843,939.4,-350.0,3018.75,-350.0,68.4,-4.56,-367.84
346984.7776,130.723,-373.686,931.165,-621.25,2520.0,-280.0,68.4,-7.6,-367.84
346984.8276,133.529,-372.527,938.973,-297.5,2511.25,-656.25,66.88,1.52,-383.04
346984.8776,132.065,-380.274,937.265,-192.5,2738.75,-621.25,53.2,3.04,-361.76
346984.9276,135.237,-368.867,931.104,192.5,2843.75,-717.5,82.08,-6.08,-370.88
346984.9776,135.237,-363.987,935.191,603.75,2747.5,-726.25,65.36,-3.04,-367.84
346985.0276,127.673,-370.819,938.729,-1111.25,3395.0,-682.5,74.48,7.6,-372.4
346985.0776,128.283,-376.248,935.008,-157.5,3018.75,-787.5,66.88,-7.6,-373.92
346985.1276,131.638,-368.745,934.52,236.25,2380.0,-323.75,60.8,0.0,-375.44
346985.1776,136.213,-375.638,934.215,131.25,2590.0,-402.5,76.0,-6.08,-370.88
346985.2276,131.394,-371.246,932.446,-105.0,2703.75,-577.5,77.52,-3.04,-361.76
346985.2776,132.492,-368.379,934.032,-87.5,3088.75,-1058.75,72.96,-3.04,-376.96
346985.3276,132.675,-372.283,935.496,-236.25,2546.25,-446.25,63.84,9.12,-372.4
346985.3776,134.749,-370.087,933.727,218.75,2432.5,-630.0,59.28,0.0,-369.36
346985.4276,133.59,-370.392,935.74,-175.0,2843.75,-647.5,65.36,1.52,-381.52
346985.4776,134.81,-372.649,933.422,-175.0,2485.0,-288.75,63.84,7.6,-363.28
346985.5277,134.932,-372.771,931.531,-708.75,2686.25,-603.75,60.8,-4.56,-360.24
346985.5776,133.224,-376.187,937.753,-358.75,3193.75,-945.0,77.52,-9.12,-361.76
346985.6276,133.285,-376.858,933.788,638.75,2948.75,-883.75,63.84,1.52,-357.2
346985.6776,131.455,-371.551,933.3,70.0,3018.75,-481.25,72.96,4.56,-370.88
346985.7276,135.176,-362.523,940.376,122.5,3631.25,-1085.0,69.92,-3.04,-367.84
346985.7776,127.368,-381.128,932.629,-848.75,2397.5,-498.75,66.88,-3.04,-357.2
346985.8276,133.895,-377.224,933.483,551.25,2625.0,-533.75,51.68,-4.56,-378.48
346985.8776,136.701,-368.745,932.934,-210.0,2703.75,-78.75,50.16,13.68,-364.8
346985.9276,132.187,-377.773,933.605,-498.75,2817.5,-586.25,66.88,7.6,-378.48
346985.9776,137.128,-370.392,937.57,-140.0,3088.75,-1260.0,69.92,6.08,-378.48
346986.0276,126.453,-376.919,937.448,-218.75,2695.0,-778.75,71.44,4.56,-375.44
346986.0776,134.993,-378.566,935.679,481.25,2572.5,-831.25,56.24,4.56,-364.8
346986.1276,130.784,-372.283,932.812,533.75,3132.5,-411.25,65.36,-4.56,-378.48
346986.1776,133.956,-372.832,932.629,0.0,2371.25,-551.25,60.8,-3.04,-383.04
346986.2276,137.86,-372.527,932.385,498.75,2765.0,-761.25,54.72,1.52,-375.44
346986.2776,132.797,-371.673,934.398,-481.25,3106.25,-735.0,63.84,10.64,-369.36
346986.3276,130.418,-375.699,938.119,140.0,2336.25,-708.75,56.24,-4.56,-372.4
346986.3776,134.017,-375.028,930.677,8.75,2703.75,210.0,56.24,15.2,-375.44
346986.4276,134.627,-364.17,941.047,-297.5,3683.75,-857.5,62.32,-4.56,-375.44
346986.4776,128.283,-377.773,936.533,-656.25,2957.5,-682.5,60.8,3.04,-375.44
346986.5276,130.418,-373.015,931.958,262.5,2756.25,-507.5,54.72,7.6,-367.84
346986.5776,134.688,-363.621,933.788,-428.75,2660.0,-148.75,74.48,-3.04,-366.32
346986.6276,137.799,-380.03,931.714,-848.75,3316.25,-166.25,51.68,1.52,-363.28
346986.6776,129.015,-371.673,936.533,96.25,3298.75,-1155.0,57.76,-4.56,-366.32
346986.7276,129.442,-371.612,935.557,-752.5,2546.25,-603.75,60.8,4.56,-375.44
346986.7776,136.64,-377.407,933.056,551.25,3351.25,-533.75,69.92,4.56,-378.48
