TimeStamp,ax,ay,az,gx,gy,gz,mx,my,mz
347840.2276,127.978,-179.706,989.603,-2406.25,4506.25,-1391.25,57.76,-85.12,-457.52
347840.2776,123.525,-190.442,986.614,-490.0,4156.25,-245.0,54.72,-97.28,-457.52
347840.3276,124.257,-180.804,993.629,-175.0,3062.5,778.75,74.48,-89.68,-449.92
347840.3776,124.257,-172.996,995.52,647.5,1872.5,-988.75,66.88,-71.44,-466.64
347840.4276,123.769,-156.282,993.263,-568.75,1846.25,-673.75,71.44,-77.52,-446.88
347840.4776,137.555,-165.31,995.276,105.0,1207.5,411.25,63.84,-82.08,-465.12
347840.5278,142.008,-159.942,994.117,-376.25,2030.0,1128.75,59.28,-77.52,-465.12
347840.5776,144.021,-173.423,998.631,1531.25,4077.5,-245.0,66.88,-80.56,-459.04
347840.6277,137.982,-156.892,996.679,1688.75,4340.0,-1023.75,69.92,-82.08,-459.04
347840.6776,132.675,-154.452,994.788,1155.0,3990.0,-761.25,60.8,-94.24,-459.04
347840.7276,123.098,-162.016,993.446,-315.0,4165.0,2117.5,56.24,-83.6,-469.68
347840.7776,125.782,-180.438,987.59,253.75,5652.5,3342.5,63.84,-85.12,-465.12
347840.8276,82.777,-164.09,992.104,4060.0,5398.75,78.75,79.04,-72.96,-463.6
347840.8776,78.019,-130.845,997.777,2152.5,1881.25,-2730.0,72.96,-77.52,-456.0
347840.9276,91.073,-155.184,1003.572,-6501.25,-945.0,-2546.25,62.32,-86.64,-459.04
347840.9776,136.457,-191.479,994.727,1636.25,-3342.5,551.25,66.88,-83.6,-463.6
347841.0276,155.611,-159.088,992.531,1811.25,-3036.25,945.0,45.6,-80.56,-469.68
347841.0776,159.759,-147.132,993.873,-157.5,-26.25,-936.25,48.64,-86.64,-469.68
347841.1276,160.186,-147.498,993.568,-2747.5,131.25,1006.25,66.88,-94.24,-448.4
347841.1776,155.55,-182.39,984.967,-35.0,1478.75,3806.25,66.88,-86.64,-456.0
347841.2276,148.718,-157.929,986.309,2275.0,1732.5,-218.75,53.2,-77.52,-457.52
347841.2776,147.62,-138.409,992.653,2126.25,2450.0,-1618.75,68.4,-86.64,-465.12
347841.3276,158.783,-126.453,1005.707,-3010.0,5416.25,-1907.5,72.96,-91.2,-460.56
347841.3776,127.978,-168.543,984.113,-6072.5,6133.75,-1557.5,59.28,-85.12,-465.12
347841.4276,135.847,-196.42,980.758,-1618.75,7507.5,175.0,54.72,-83.6,-463.6
347841.4776,98.515,-165.615,996.069,840.0,4287.5,-3902.5,63.84,-95.76,-460.56
347841.5276,125.416,-152.256,996.74,-1575.0,3858.75,-4200.0,68.4,-82.08,-457.52
347841.5776,116.388,-177.998,996.862,-2887.5,1487.5,-2686.25,65.36,-79.04,-466.64
347841.6276,138.775,-189.527,989.603,-1522.5,-210.0,463.75,44.08,-80.56,-460.56
347841.6776,156.465,-180.987,994.178,2817.5,1828.75,743.75,74.48,-85.12,-454.48
347841.7276,144.082,-154.452,992.47,927.5,3255.0,-2231.25,53.2,-82.08,-446.88
347841.7776,143.472,-164.273,991.982,735.0,3342.5,-2038.75,65.36,-80.56,-462.08
347841.8276,134.688,-156.953,991.677,1181.25,3368.75,-201.25,77.52,-80.56,-448.4
347841.8776,142.557,-161.833,989.969,533.75,3395.0,-227.5,68.4,-86.64,-449.92
347841.9276,126.209,-161.162,988.383,-2047.5,3780.0,-647.5,56.24,-85.12,-469.68
347841.9776,139.812,-189.344,986.492,-498.75,3885.0,-1093.75,50.16,-83.6,-456.0
347842.0276,133.407,-164.639,995.947,551.25,4497.5,-2213.75,57.76,-89.68,-442.32
347842.0776,123.769,-173.911,994.544,113.75,2843.75,-1513.75,60.8,-79.04,-460.56
347842.1276,132.126,-162.016,992.287,700.0,3298.75,-490.0,44.08,-80.56,-460.56
347842.1776,127.978,-164.883,992.043,-1391.25,2213.75,910.0,60.8,-83.6,-448.4
347842.2276,135.481,-171.41,993.385,-437.5,1855.0,-210.0,53.2,-77.52,-462.08
347842.2776,140.117,-167.445,995.276,-761.25,2327.5,-1146.25,51.68,-74.48,-457.52
347842.3276,140.605,-168.909,990.579,-105.0,3246.25,-813.75,57.76,-82.08,-466.64
347842.3776,134.2,-162.565,989.237,-831.25,3482.5,-1172.5,66.88,-83.6,-452.96
347842.4276,136.884,-171.105,989.481,-936.25,3036.25,-1426.25,53.2,-77.52,-457.52
347842.4776,132.065,-173.545,993.263,-1295.0,2668.75,70.0,60.8,-82.08,-465.12
347842.5276,132.309,-172.691,990.823,-805.0,3246.25,778.75,56.24,-76.0,-460.56
347842.5776,137.189,-185.135,987.041,-761.25,2721.25,-848.75,66.88,-76.0,-460.56
347842.6276,136.274,-179.767,990.762,-96.25,3071.25,-2135.0,53.2,-74.48,-468.16
347842.6776,130.601,-172.752,998.57,-1198.75,3202.5,-1076.25,63.84,-83.6,-465.12
347842.7276,138.775,-176.595,991.616,-306.25,2388.75,-297.5,74.48,-77.52,-460.56
347842.7776,128.893,-176.961,990.335,175.0,3675.0,-1032.5,54.72,-86.64,-468.16
347842.8276,135.359,-169.397,991.311,-1041.25,3018.75,-953.75,51.68,-79.04,-454.48
347842.8776,138.043,-177.998,992.287,-735.0,3342.5,-61.25,63.84,-86.64,-454.48
347842.9276,130.418,-174.521,991.677,-463.75,3360.0,-1181.25,48.64,-82.08,-439.28
347842.9776,133.285,-176.412,986.675,-481.25,3176.25,-1618.75,47.12,-86.64,-452.96
347843.0276,130.479,-176.229,989.725,-1128.75,2931.25,-1461.25,63.84,-79.04,-463.6
347843.0776,135.115,-188.124,989.664,-691.25,2642.5,-743.75,60.8,-76.0,-460.56
347843.1276,141.764,-186.233,988.017,490.0,2913.75,-245.0,59.28,-79.04,-462.08
347843.1776,132.187,-186.233,990.762,533.75,3570.0,-1741.25,59.28,-60.8,-477.28
347843.2276,136.701,-181.048,985.638,78.75,3473.75,-3342.5,68.4,-83.6,-468.16
347843.2776,132.797,-191.54,994.117,-1058.75,2546.25,-1855.0,62.32,-76.0,-460.56
347843.3276,141.581,-177.449,1002.169,3185.0,2887.5,-1505.0,48.64,-69.92,-465.12
347843.3776,125.965,-138.958,990.701,-4112.5,4585.0,1198.75,47.12,-89.68,-466.64
347843.4276,132.98,-173.545,988.627,1610.0,3438.75,-192.5,76.0,-77.52,-451.44
347843.4776,124.135,-157.868,993.08,-3202.5,3788.75,1330.0,56.24,-82.08,-460.56
347843.5276,138.287,-196.908,1019.127,-420.0,3666.25,490.0,48.64,-77.52,-468.16
347843.5776,139.141,-171.654,1008.147,1461.25,3508.75,-472.5,63.84,-71.44,-456.0
347843.6276,129.442,-185.318,990.823,-1898.75,3080.0,-2651.25,57.76,-85.12,-475.76
347843.6779,129.808,-157.258,986.553,-586.25,2056.25,-43.75,57.76,-74.48,-463.6
347843.7276,136.457,-177.449,1001.681,-4016.25,3001.25,1330.0,50.16,-76.0,-460.56
347843.7777,130.601,-189.649,979.477,1058.75,1951.25,-656.25,59.28,-76.0,-452.96
347843.8276,137.799,-181.597,1005.585,-1102.5,3351.25,-857.5,66.88,-82.08,-446.88
347843.8777,130.418,-199.653,987.59,420.0,3123.75,-1933.75,51.68,-77.52,-462.08
347843.9276,140.239,-177.754,993.934,2458.75,2275.0,-962.5,41.04,-68.4,-463.6
347843.9776,139.812,-176.168,994.361,953.75,2607.5,-35.0,39.52,-69.92,-454.48
347844.0276,130.723,-171.959,980.941,1058.75,2800.0,17.5,57.76,-82.08,-456.0
347844.0776,134.017,-174.521,1007.232,525.0,3622.5,-743.75,68.4,-80.56,-459.04
347844.1276,129.076,-177.266,997.289,997.5,2143.75,481.25,66.88,-72.96,-459.04
347844.1776,114.253,-183.366,998.326,2467.5,420.0,5092.5,57.76,-83.6,-456.0
347844.2276,102.297,-208.193,1001.498,5433.75,-3806.25,11882.5,48.64,-82.08,-445.36
347844.2776,136.884,-175.68,984.113,12180.0,-4147.5,17605.0,50.16,-72.96,-469.68
347844.3276,153.415,-136.152,983.808,10683.75,-2695.0,24325.0,74.48,-77.52,-451.44
347844.3776,163.602,-161.162,986.614,4655.0,122.5,29435.0,62.32,-83.6,-448.4
347844.4276,158.173,-147.986,993.08,6195.0,4366.25,15557.5,57.76,-74.48,-460.56
347844.4776,137.128,-126.758,996.374,1330.0,4497.5,3395.0,68.4,-72.96,-462.08
347844.5276,139.629,-149.694,989.054,-5381.25,3648.75,-10648.75,63.84,-69.92,-459.04
347844.5776,155.794,-155.062,994.117,-2660.0,2196.25,-13431.25,65.36,-72.96,-463.6
347844.6276,146.522,-161.162,995.032,-3500.0,3701.25,-11935.0,76.0,-63.84,-459.04
347844.6776,149.267,-167.323,992.714,183.75,2633.75,-9415.0,72.96,-68.4,-456.0
347844.7276,152.012,-134.993,984.906,-1715.0,3753.75,-3666.25,60.8,-65.36,-456.0
347844.7776,136.518,-169.58,993.324,-3062.5,3482.5,-1225.0,62.32,-66.88,-475.76
347844.8276,144.997,-167.994,993.629,-1408.75,3482.5,-1356.25,59.28,-74.48,-475.76
347844.8776,137.494,-166.652,995.032,-1181.25,4025.0,-1671.25,69.92,-72.96,-460.56
347844.9276,140.117,-175.07,988.871,253.75,4488.75,-3088.75,62.32,-63.84,-452.96
347844.9776,129.076,-157.258,995.154,-1233.75,4060.0,-3613.75,47.12,-77.52,-456.0
347845.0276,141.154,-180.011,991.86,26.25,4480.0,-2896.25,65.36,-79.04,-452.96
347845.0776,134.688,-160.735,998.814,1120.0,4235.0,-1925.0,54.72,-71.44,-452.96
347845.1276,125.294,-162.687,989.603,-883.75,4077.5,-1225.0,65.36,-80.56,-456.0
347845.1776,126.392,-169.458,989.054,-420.0,2782.5,-1470.0,68.4,-85.12,-463.6
347845.2276,136.518,-168.055,992.287,-166.25,2248.75,-472.5,71.44,-83.6,-457.52
347845.2776,142.374,-160.674,995.703,201.25,2126.25,-805.0,59.28,-74.48,-465.12
347845.3276,142.74,-160.369,991.799,-1242.5,3062.5,-595.0,53.2,-76.0,-465.12
347845.3776,132.98,-162.748,991.616,148.75,3386.25,-2485.0,60.8,-77.52,-449.92
347845.4276,130.54,-155.672,992.409,-1452.5,2511.25,-1933.75,56.24,-71.44,-457.52
347845.4776,139.69,-179.279,994.117,175.0,2546.25,-2196.25,65.36,-74.48,-466.64
347845.5276,138.653,-161.345,990.03,-918.75,2642.5,-2100.0,60.8,-65.36,-462.08
347845.5776,146.278,-175.314,988.383,-227.5,3377.5,-2135.0,69.92,-82.08,-460.56
347845.6276,134.322,-162.931,989.908,-341.25,3360.0,-2100.0,47.12,-77.52,-468.16
347845.6776,144.448,-176.351,992.287,253.75,2861.25,-1697.5,65.36,-76.0,-460.56
347845.7276,148.596,-166.835,992.165,332.5,3552.5,-743.75,71.44,-74.48,-452.96
347845.7776,128.161,-161.101,991.372,-192.5,3850.0,-1338.75,60.8,-71.44,-452.96
347845.8276,130.174,-169.885,987.407,-883.75,2782.5,-1513.75,60.8,-72.96,-459.04
347845.8776,138.592,-171.776,991.433,682.5,2765.0,-2327.5,62.32,-69.92,-483.36
347845.9276,138.165,-162.016,995.825,-201.25,3010.0,-1951.25,74.48,-79.04,-440.8
347845.9776,142.435,-172.203,993.324,1242.5,2756.25,-1382.5,63.84,-82.08,-454.48
347846.0276,137.311,-156.343,990.823,1330.0,3290.0,-1750.0,65.36,-83.6,-449.92
347846.0776,139.629,-161.101,990.457,-490.0,2747.5,-883.75,68.4,-62.32,-469.68
347846.1276,139.69,-165.432,991.555,-61.25,2852.5,-463.75,60.8,-80.56,-456.0
347846.1776,141.581,-164.273,991.86,-385.0,2870.0,-1050.0,60.8,-74.48,-457.52
347846.2276,143.655,-166.774,993.263,385.0,3412.5,-1837.5,54.72,-77.52,-462.08
347846.2776,138.287,-162.016,989.176,332.5,3710.0,-1767.5,76.0,-77.52,-452.96
347846.3276,136.518,-166.103,993.263,-183.75,2852.5,-1811.25,63.84,-82.08,-471.2
347846.3776,142.435,-155.733,992.592,-166.25,3622.5,-1548.75,53.2,-83.6,-451.44
347846.4276,141.886,-164.578,994.849,-26.25,4348.75,-1566.25,72.96,-77.52,-471.2
347846.4776,129.259,-164.517,989.786,-455.0,3430.0,-2590.0,83.6,-72.96,-452.96
347846.5276,134.749,-166.53,990.152,-280.0,3473.75,-2178.75,45.6,-85.12,-460.56
347846.5776,138.348,-163.236,992.043,-96.25,3237.5,-1347.5,54.72,-68.4,-466.64
347846.6276,138.226,-169.458,994.178,708.75,2931.25,-1102.5,63.84,-69.92,-462.08
347846.6776,131.577,-159.759,990.945,805.0,4121.25,-2152.5,71.44,-82.08,-452.96
347846.7276,135.542,-157.136,992.165,-341.25,2730.0,-2108.75,60.8,-65.36,-446.88
347846.7776,136.457,-165.066,992.226,131.25,3298.75,-1128.75,54.72,-80.56,-472.72
347846.8278,130.906,-161.162,993.08,262.5,2975.0,-1076.25,68.4,-85.12,-454.48
347846.8776,136.091,-161.467,989.847,43.75,2957.5,-665.0,54.72,-77.52,-460.56
347846.9277,135.176,-164.273,993.202,481.25,2826.25,-595.0,60.8,-80.56,-457.52
347846.9776,131.943,-160.918,994.056,-638.75,2502.5,-840.0,62.32,-71.44,-454.48
347847.0277,140.971,-169.275,992.897,-70.0,2537.5,-691.25,53.2,-89.68,-463.6
347847.0776,147.071,-157.685,991.616,1303.75,3430.0,-691.25,45.6,-72.96,-462.08
347847.1276,131.882,-157.929,991.128,-1076.25,3438.75,-1741.25,57.76,-71.44,-457.52
347847.1776,136.335,-174.704,991.494,-253.75,3237.5,-1793.75,60.8,-89.68,-451.44
347847.2276,131.76,-152.622,994.3,1172.5,3272.5,-892.5,65.36,-79.04,-446.88
347847.2776,128.649,-157.075,996.984,-533.75,2948.75,-638.75,63.84,-80.56,-452.96
347847.3276,144.387,-164.578,993.568,603.75,3526.25,-1041.25,65.36,-82.08,-459.04
347847.3776,130.601,-155.733,993.629,315.0,2957.5,-1487.5,48.64,-76.0,-462.08
347847.4276,137.067,-156.831,991.372,-516.25,3333.75,-1233.75,68.4,-85.12,-468.16
347847.4776,132.614,-162.748,995.947,52.5,3333.75,-542.5,60.8,-79.04,-454.48
347847.5276,128.1,-158.905,993.934,166.25,2992.5,-1163.75,65.36,-86.64,-454.48
347847.5776,136.884,-162.382,993.568,227.5,3062.5,-551.25,54.72,-86.64,-449.92
347847.6276,133.529,-157.319,992.714,-297.5,3141.25,-157.5,65.36,-86.64,-459.04
347847.6776,134.688,-168.299,992.348,-341.25,2441.25,-980.0,60.8,-88.16,-462.08
347847.7276,139.812,-156.526,994.178,113.75,2791.25,-218.75,57.76,-77.52,-460.56
347847.7776,142.008,-157.38,995.52,-183.75,3631.25,-105.0,53.2,-72.96,-468.16
347847.8276,129.503,-164.7,988.566,-1312.5,2808.75,-1408.75,69.92,-82.08,-456.0
347847.8776,135.176,-169.885,988.505,-420.0,2940.0,-1137.5,72.96,-88.16,-459.04
347847.9276,138.348,-155.306,993.324,113.75,2870.0,61.25,60.8,-89.68,-466.64
347847.9776,139.629,-167.872,990.518,-280.0,2555.0,-376.25,54.72,-83.6,-457.52
347848.0276,135.664,-168.604,995.703,883.75,3657.5,-1627.5,69.92,-69.92,-475.76
347848.0776,130.601,-154.269,995.032,175.0,2896.25,-1688.75,51.68,-94.24,-459.04
347848.1276,132.553,-160.613,992.897,-428.75,3193.75,-411.25,59.28,-85.12,-466.64
347848.1776,134.322,-162.199,995.032,402.5,2983.75,-866.25,45.6,-79.04,-459.04
347848.2276,137.738,-159.698,994.3,-402.5,2695.0,-1338.75,72.96,-83.6,-459.04
347848.2776,139.873,-163.907,990.274,96.25,3377.5,-665.0,59.28,-76.0,-466.64
347848.3276,132.004,-159.149,993.141,-376.25,2922.5,-1408.75,48.64,-76.0,-463.6
347848.3776,135.786,-166.774,993.873,-201.25,2590.0,-1155.0,60.8,-88.16,-460.56
347848.4276,133.773,-163.175,993.446,78.75,3071.25,-105.0,60.8,-69.92,-451.44
347848.4776,127.49,-156.221,995.276,131.25,3421.25,-1461.25,57.76,-82.08,-471.2
347848.5276,132.431,-164.395,988.993,-988.75,2590.0,-1513.75,63.84,-79.04,-466.64
347848.5776,130.052,-167.384,992.287,437.5,3132.5,-568.75,71.44,-72.96,-462.08
347848.6276,135.054,-157.075,994.117,-87.5,2992.5,-778.75,60.8,-91.2,-468.16
347848.6776,143.899,-168.421,992.348,358.75,2896.25,-700.0,54.72,-71.44,-466.64
347848.7276,123.952,-156.465,994.483,463.75,3395.0,-1750.0,69.92,-72.96,-459.04
347848.7776,132.492,-159.088,992.348,-61.25,2327.5,-1723.75,57.76,-88.16,-456.0
347848.8276,130.662,-161.284,991.311,253.75,2835.0,437.5,62.32,-83.6,-463.6
347848.8776,128.405,-159.698,993.751,-87.5,2703.75,-420.0,57.76,-76.0,-468.16
347848.9276,135.847,-161.833,995.154,-560.0,2668.75,-595.0,62.32,-76.0,-456.0
347848.9776,135.298,-163.846,991.86,-52.5,3088.75,78.75,60.8,-77.52,-454.48
347849.0276,129.442,-161.772,993.812,-533.75,3053.75,-910.0,54.72,-80.56,-460.56
347849.0776,137.433,-166.591,993.995,-437.5,2843.75,-577.5,65.36,-68.4,-465.12
347849.1276,141.154,-164.09,992.348,717.5,3193.75,-315.0,65.36,-79.04,-459.04
347849.1776,124.989,-158.844,993.019,-1128.75,2782.5,-1120.0,63.84,-77.52,-462.08
347849.2276,137.006,-168.909,989.603,-1120.0,2703.75,-918.75,53.2,-100.32,-465.12
347849.2776,130.54,-165.31,994.239,568.75,2826.25,-437.5,79.04,-82.08,-462.08
347849.3276,136.03,-164.883,995.459,-376.25,2730.0,-665.0,76.0,-80.56,-446.88
347849.3776,137.616,-170.556,991.921,446.25,3386.25,-953.75,59.28,-79.04,-468.16
347849.4276,127.002,-156.526,993.934,525.0,2896.25,-1706.25,62.32,-82.08,-465.12
347849.4776,135.969,-159.637,991.494,-507.5,2966.25,-778.75,59.28,-76.0,-446.88
347849.5276,128.039,-163.785,994.056,-148.75,3045.0,-218.75,53.2,-80.56,-460.56
347849.5776,128.588,-160.247,993.385,-393.75,2730.0,-1487.5,71.44,-83.6,-465.12
347849.6276,134.688,-167.079,993.751,-726.25,2555.0,-726.25,77.52,-74.48,-459.04
347849.6776,130.601,-167.506,991.86,96.25,2843.75,-743.75,76.0,-72.96,-452.96
347849.7276,130.845,-166.347,993.263,35.0,2327.5,-1146.25,54.72,-82.08,-449.92
347849.7776,134.2,-162.992,992.714,630.0,2432.5,-210.0,51.68,-86.64,-471.2
347849.8276,132.553,-159.21,996.801,411.25,3736.25,-577.5,62.32,-79.04,-449.92
347849.8776,127.551,-165.188,991.433,-927.5,2695.0,-1251.25,63.84,-85.12,-451.44
347849.9276,134.749,-167.872,987.895,192.5,3491.25,-1015.0,50.16,-74.48,-468.16
347849.9776,133.59,-160.186,996.618,-271.25,3053.75,-516.25,62.32,-88.16,-445.36
347850.0276,132.919,-169.275,997.655,-665.0,2205.0,-1400.0,59.28,-94.24,-468.16
347850.0778,134.81,-163.358,995.093,297.5,3508.75,-1513.75,54.72,-79.04,-456.0
347850.1276,128.039,-156.587,994.666,-350.0,2782.5,-1426.25,63.84,-79.04,-468.16
347850.1777,132.919,-170.434,993.812,-726.25,3053.75,-420.0,62.32,-72.96,-460.56
347850.2276,131.943,-167.75,994.361,183.75,2878.75,-280.0,51.68,-76.0,-442.32
347850.2777,131.211,-164.395,994.117,-271.25,2826.25,-1120.0,53.2,-71.44,-463.6
347850.3276,135.115,-165.066,990.396,-218.75,2642.5,-875.0,60.8,-85.12,-459.04
347850.3776,132.614,-168.482,994.666,-507.5,2712.5,-498.75,56.24,-80.56,-460.56
347850.4276,135.786,-169.946,993.263,192.5,2625.0,-726.25,63.84,-68.4,-460.56
347850.4776,142.008,-168.604,993.141,988.75,3097.5,-463.75,57.76,-86.64,-454.48
347850.5276,127.673,-167.872,991.677,-341.25,2966.25,-1400.0,69.92,-79.04,-460.56
347850.5776,135.969,-171.349,986.858,-131.25,3150.0,-1286.25,47.12,-82.08,-465.12
347850.6276,129.503,-162.138,994.239,647.5,3001.25,-665.0,53.2,-74.48,-465.12
347850.6776,134.81,-167.933,997.716,-700.0,2861.25,-428.75,79.04,-92.72,-456.0
347850.7276,137.616,-169.214,992.958,525.0,3981.25,-988.75,53.2,-85.12,-460.56
347850.7776,124.806,-161.65,992.043,262.5,2878.75,-1828.75,62.32,-82.08,-462.08
347850.8276,136.884,-162.321,992.287,-262.5,3080.0,-708.75,59.28,-79.04,-474.24
347850.8776,129.686,-164.151,993.934,306.25,3097.5,-227.5,65.36,-76.0,-463.6
347850.9276,131.455,-162.077,992.47,-630.0,2791.25,-1155.0,59.28,-86.64,-462.08
347850.9776,133.468,-163.907,991.494,-761.25,2905.0,-586.25,63.84,-71.44,-457.52
347851.0276,130.662,-166.896,994.971,-1041.25,2695.0,-516.25,68.4,-79.04,-452.96
347851.0776,135.054,-170.617,996.984,-297.5,2642.5,-770.0,72.96,-88.16,-452.96
347851.1276,138.409,-167.872,991.555,245.0,3272.5,-358.75,60.8,-79.04,-454.48
347851.1776,125.172,-165.554,994.239,-1006.25,2975.0,-2065.0,62.32,-74.48,-452.96
347851.2276,133.712,-174.094,989.786,-525.0,2625.0,-1548.75,66.88,-85.12,-459.04
347851.2776,131.211,-169.763,991.25,603.75,2913.75,-157.5,71.44,-91.2,-442.32
347851.3276,129.198,-163.297,995.825,-638.75,2668.75,-96.25,62.32,-86.64,-452.96
347851.3776,140.056,-172.752,993.507,113.75,2283.75,656.25,63.84,-76.0,-456.0
347851.4276,127.856,-157.502,992.531,227.5,2458.75,-1251.25,72.96,-74.48,-442.32
347851.4776,140.544,-167.079,990.884,-805.0,2931.25,-1400.0,50.16,-82.08,-462.08
347851.5276,131.699,-172.203,994.422,253.75,3342.5,-297.5,65.36,-79.04,-465.12
347851.5776,128.893,-165.92,993.751,131.25,2870.0,-1260.0,65.36,-82.08,-462.08
347851.6276,134.749,-173.118,994.3,183.75,2712.5,-848.75,65.36,-77.52,-457.52
347851.6776,134.322,-165.981,992.714,157.5,2800.0,-551.25,60.8,-80.56,-465.12
347851.7276,136.64,-171.349,992.653,-201.25,2432.5,-717.5,63.84,-72.96,-463.6
347851.7776,144.082,-173.179,994.422,656.25,3001.25,-183.75,68.4,-91.2,-442.32
347851.8276,134.322,-162.443,993.507,455.0,4147.5,-945.0,65.36,-92.72,-454.48
347851.8776,132.248,-171.959,988.81,-542.5,2887.5,-1505.0,57.76,-85.12,-468.16
347851.9276,134.139,-173.118,991.799,560.0,3141.25,-1015.0,65.36,-72.96,-462.08
347851.9776,133.834,-160.43,994.544,-297.5,2983.75,-472.5,62.32,-86.64,-474.24
347852.0276,140.971,-172.752,990.701,498.75,2992.5,-962.5,60.8,-79.04,-462.08
347852.0776,129.381,-164.151,991.799,297.5,3447.5,-1356.25,59.28,-79.04,-471.2
347852.1276,135.176,-164.822,990.762,-708.75,2581.25,-743.75,72.96,-77.52,-462.08
347852.1776,134.993,-173.24,992.409,-385.0,3045.0,385.0,71.44,-83.6,-452.96
347852.2276,129.747,-166.896,990.396,148.75,2668.75,-1128.75,51.68,-82.08,-445.36
347852.2776,138.47,-171.044,993.629,-350.0,2791.25,-533.75,54.72,-85.12,-465.12
347852.3276,133.834,-168.543,992.409,-140.0,2887.5,-52.5,65.36,-79.04,-465.12
347852.3776,130.967,-171.41,995.825,-105.0,2301.25,-1023.75,65.36,-83.6,-452.96
347852.4276,139.507,-169.885,993.202,61.25,2992.5,-857.5,53.2,-89.68,-448.4
347852.4776,142.252,-167.75,993.385,717.5,3421.25,-586.25,53.2,-76.0,-445.36
347852.5276,128.71,-168.238,992.47,-1067.5,2686.25,-1268.75,80.56,-77.52,-462.08
347852.5776,140.239,-175.375,988.627,-148.75,3088.75,-945.0,53.2,-82.08,-448.4
347852.6276,135.42,-163.541,995.581,315.0,3132.5,-455.0,57.76,-69.92,-469.68
347852.6776,131.699,-173.911,998.082,-122.5,2765.0,-822.5,72.96,-72.96,-459.04
347852.7276,138.714,-168.299,990.884,831.25,3920.0,-936.25,45.6,-76.0,-457.52
347852.7776,127.795,-160.918,991.494,-105.0,2633.75,-1198.75,63.84,-79.04,-463.6
347852.8276,135.359,-169.336,991.677,-402.5,2966.25,-385.0,59.28,-82.08,-466.64
347852.8776,132.614,-168.604,994.544,638.75,2808.75,-245.0,66.88,-80.56,-452.96
347852.9276,131.516,-163.907,992.287,-113.75,2826.25,-1015.0,71.44,-80.56,-442.32
347852.9776,138.226,-172.325,991.738,-148.75,2870.0,-323.75,69.92,-71.44,-459.04
347853.0276,134.505,-168.604,992.165,498.75,2887.5,-743.75,66.88,-69.92,-465.12
347853.0776,133.285,-168.177,992.592,-472.5,2371.25,-945.0,53.2,-82.08,-446.88
347853.1276,135.603,-165.249,993.934,490.0,2817.5,-551.25,59.28,-77.52,-459.04
347853.1776,140.666,-165.676,995.215,472.5,3220.0,-385.0,53.2,-79.04,-446.88
347853.2276,132.126,-174.399,990.884,-1032.5,2651.25,-892.5,65.36,-80.56,-440.8
347853.2776,135.298,-176.534,986.98,-140.0,3298.75,-945.0,69.92,-77.52,-452.96
347853.3278,133.956,-164.273,995.459,122.5,3097.5,-481.25,54.72,-77.52,-475.76
347853.3776,132.126,-176.107,993.507,-700.0,2791.25,-358.75,50.16,-72.96,-457.52
347853.4277,137.189,-173.057,992.287,1233.75,3587.5,-1338.75,69.92,-80.56,-451.44
347853.4776,128.222,-157.319,992.409,-218.75,2572.5,-1513.75,48.64,-86.64,-449.92
347853.5278,135.237,-168.909,993.507,-910.0,2703.75,-218.75,54.72,-86.64,-469.68
347853.5776,132.98,-169.641,992.653,297.5,2835.0,-192.5,68.4,-86.64,-459.04
347853.6276,135.176,-169.214,990.274,-630.0,2695.0,-778.75,69.92,-72.96,-456.0
347853.6776,136.518,-174.704,992.531,-52.5,3220.0,-323.75,68.4,-71.44,-457.52
347853.7276,133.895,-167.872,992.043,-253.75,2817.5,-1006.25,63.84,-69.92,-466.64
347853.7776,135.847,-173.057,989.481,-113.75,2668.75,-752.5,60.8,-82.08,-449.92
347853.8276,136.457,-163.663,991.067,402.5,2957.5,17.5,54.72,-83.6,-454.48
347853.8776,131.089,-159.698,994.178,-183.75,3657.5,-936.25,47.12,-83.6,-465.12
347853.9276,128.649,-170.922,989.054,-1487.5,2633.75,-971.25,56.24,-82.08,-456.0
347853.9776,131.699,-176.961,991.616,542.5,3106.25,-603.75,66.88,-82.08,-466.64
347854.0276,136.64,-164.578,994.056,227.5,2651.25,-385.0,56.24,-82.08,-460.56
347854.0776,132.37,-174.887,994.239,-245.0,2721.25,-446.25,71.44,-74.48,-451.44
347854.1276,129.869,-163.419,992.958,525.0,3482.5,-1513.75,66.88,-69.92,-465.12
347854.1776,131.638,-161.284,992.043,-525.0,2651.25,-1251.25,59.28,-82.08,-440.8
347854.2276,130.723,-174.094,993.69,-420.0,3018.75,131.25,62.32,-77.52,-480.32
347854.2776,130.113,-171.593,994.605,157.5,2922.5,-472.5,68.4,-76.0,-460.56
347854.3276,135.054,-173.789,989.664,-323.75,2703.75,-1006.25,62.32,-82.08,-454.48
347854.3776,134.444,-176.29,991.616,726.25,3141.25,-673.75,59.28,-82.08,-465.12
347854.4276,132.858,-168.726,991.067,192.5,3027.5,-1198.75,72.96,-77.52,-469.68
347854.4776,139.507,-170.739,989.664,227.5,2625.0,-1443.75,72.96,-79.04,-460.56
347854.5276,138.775,-167.75,993.141,490.0,3036.25,-490.0,53.2,-76.0,-460.56
347854.5776,128.954,-163.236,996.069,-280.0,3788.75,-988.75,54.72,-89.68,-466.64
347854.6276,131.821,-169.824,990.152,-910.0,2415.0,-1268.75,65.36,-77.52,-446.88
347854.6776,133.163,-172.569,989.847,717.5,3447.5,-420.0,66.88,-76.0,-452.96
347854.7276,132.736,-165.554,993.812,-595.0,2966.25,-595.0,57.76,-79.04,-449.92
347854.7776,133.895,-178.364,993.263,-603.75,2887.5,-752.5,65.36,-76.0,-474.24
347854.8276,127.49,-168.238,994.3,1198.75,3456.25,-1373.75,54.72,-77.52,-451.44
347854.8776,128.222,-163.663,996.557,-52.5,2555.0,-1365.0,62.32,-83.6,-463.6
347854.9276,132.919,-169.946,992.653,-26.25,3272.5,-227.5,60.8,-83.6,-463.6
347854.9776,130.723,-169.336,992.47,-87.5,2870.0,-945.0,62.32,-83.6,-460.56
347855.0276,135.786,-170.556,992.531,-201.25,2721.25,-953.75,65.36,-69.92,-457.52
347855.0776,134.688,-174.46,992.104,586.25,3045.0,-542.5,65.36,-82.08,-454.48
347855.1276,131.577,-166.957,992.348,385.0,2730.0,-1085.0,76.0,-89.68,-474.24
347855.1776,134.261,-171.593,991.677,192.5,2537.5,-568.75,65.36,-83.6,-454.48
347855.2276,133.346,-164.029,994.056,297.5,2738.75,43.75,60.8,-77.52,-457.52
347855.2776,137.86,-166.225,993.69,376.25,3386.25,-43.75,60.8,-83.6,-462.08
347855.3276,129.564,-176.168,990.701,-1023.75,2686.25,-393.75,54.72,-65.36,-459.04
347855.3776,136.335,-176.717,987.895,481.25,3088.75,-358.75,63.84,-74.48,-457.52
347855.4276,132.553,-163.724,995.032,-70.0,3220.0,0.0,59.28,-88.16,-477.28
347855.4776,137.006,-173.85,997.045,-437.5,2476.25,-315.0,47.12,-83.6,-448.4
347855.5276,138.897,-164.395,990.152,831.25,3946.25,-892.5,63.84,-82.08,-452.96
347855.5776,131.882,-163.236,992.165,-1251.25,2616.25,-1522.5,68.4,-71.44,-457.52
347855.6276,134.993,-173.667,989.786,-743.75,3141.25,-446.25,63.84,-77.52,-468.16
347855.6776,133.712,-171.044,993.019,113.75,3123.75,-411.25,59.28,-77.52,-463.6
347855.7276,133.041,-172.203,993.385,-306.25,2791.25,-1338.75,60.8,-82.08,-456.0
347855.7776,137.372,-172.386,990.091,682.5,3080.0,-700.0,66.88,-66.88,-466.64
347855.8276,128.832,-163.175,992.043,-315.0,2948.75,-1198.75,54.72,-72.96,-457.52
347855.8776,133.346,-171.776,994.056,-665.0,2371.25,-1023.75,76.0,-79.04,-468.16
347855.9276,131.455,-170.129,992.409,376.25,2808.75,8.75,77.52,-82.08,-468.16
347855.9776,137.372,-168.482,991.189,726.25,2380.0,-306.25,48.64,-80.56,-452.96
347856.0276,129.442,-170.373,993.934,-577.5,2843.75,-551.25,60.8,-77.52,-468.16
347856.0776,132.553,-175.253,988.383,43.75,3228.75,-1146.25,56.24,-77.52,-454.48
347856.1276,131.638,-168.909,992.409,717.5,3132.5,-638.75,66.88,-82.08,-456.0
347856.1776,134.688,-172.386,990.884,26.25,2572.5,-385.0,50.16,-83.6,-466.64
347856.2276,140.605,-171.41,992.592,997.5,3176.25,-875.0,51.68,-83.6,-451.44
347856.2776,128.832,-161.406,992.531,105.0,2686.25,-1382.5,74.48,-86.64,-448.4
347856.3276,134.322,-170.068,993.08,-350.0,3158.75,-87.5,65.36,-74.48,-460.56
347856.3776,132.309,-170.007,994.117,306.25,2677.5,43.75,50.16,-79.04,-466.64
347856.4276,134.139,-167.872,992.653,-761.25,2808.75,-1076.25,59.28,-80.56,-465.12
347856.4776,138.653,-173.728,990.335,-525.0,3176.25,-1050.0,62.32,-79.04,-465.12
347856.5276,131.028,-167.628,994.3,131.25,3403.75,-1032.5,60.8,-89.68,-454.48
347856.5778,133.163,-176.168,993.385,-568.75,2922.5,-770.0,48.64,-80.56,-460.56
347856.6276,135.42,-171.593,992.348,341.25,3237.5,-796.25,76.0,-79.04,-456.0
347856.6777,137.189,-165.249,991.555,726.25,2983.75,-455.0,48.64,-83.6,-451.44
347856.7276,129.137,-162.077,992.958,-752.5,3692.5,-761.25,53.2,-85.12,-457.52
347856.7776,132.126,-178.303,988.81,-288.75,2975.0,-1312.5,57.76,-72.96,-477.28
347856.8276,131.699,-165.981,992.47,280.0,2887.5,-201.25,63.84,-88.16,-442.32
347856.8776,132.858,-170.922,993.568,-481.25,2826.25,-262.5,66.88,-74.48,-465.12
347856.9276,140.666,-169.275,990.884,1006.25,3333.75,-1058.75,48.64,-72.96,-456.0
347856.9776,131.089,-158.844,994.422,-131.25,3648.75,-560.0,57.76,-86.64,-466.64
347857.0276,132.187,-170.068,990.274,-1776.25,3517.5,437.5,69.92,-85.12,-452.96
347857.0776,126.819,-183.854,996.679,603.75,3307.5,-997.5,53.2,-74.48,-454.48
347857.1276,126.392,-170.312,992.226,743.75,2721.25,-980.0,60.8,-82.08,-468.16
347857.1776,129.076,-170.068,993.324,638.75,2520.0,-437.5,65.36,-89.68,-457.52
347857.2276,131.333,-169.092,990.762,525.0,2642.5,-490.0,66.88,-71.44,-466.64
347857.2776,134.261,-165.249,991.067,-455.0,2966.25,-971.25,60.8,-77.52,-466.64
347857.3276,134.2,-175.436,993.507,-665.0,2747.5,-883.75,69.92,-83.6,-459.04
347857.3776,129.808,-165.432,994.666,437.5,3202.5,-708.75,59.28,-65.36,-446.88
347857.4276,125.965,-167.506,996.374,-437.5,3482.5,-1058.75,62.32,-83.6,-452.96
347857.4776,121.939,-173.484,991.799,-560.0,2266.25,-1076.25,62.32,-74.48,-471.2
347857.5276,134.017,-172.996,990.213,472.5,2633.75,140.0,65.36,-76.0,-468.16
347857.5776,135.603,-166.713,995.703,-140.0,2528.75,122.5,59.28,-77.52,-465.12
347857.6276,136.823,-177.998,995.825,113.75,2948.75,-936.25,65.36,-79.04,-472.72
347857.6776,127.185,-161.772,994.056,770.0,3771.25,-1338.75,69.92,-74.48,-466.64
347857.7276,126.636,-162.26,992.775,-192.5,2651.25,-1260.0,51.68,-77.52,-449.92
347857.7776,133.346,-173.24,993.812,-306.25,2931.25,358.75,51.68,-88.16,-468.16
347857.8276,126.209,-172.02,995.337,183.75,2747.5,-428.75,72.96,-72.96,-460.56
347857.8776,131.699,-170.434,990.64,-437.5,2800.0,-1303.75,68.4,-77.52,-460.56
347857.9276,134.993,-174.155,990.152,691.25,3272.5,-446.25,68.4,-82.08,-460.56
347857.9776,129.015,-168.909,991.372,175.0,2861.25,-726.25,51.68,-69.92,-451.44
347858.0276,135.481,-180.499,990.823,1933.75,2712.5,376.25,56.24,-76.0,-460.56
347858.0776,129.198,-166.713,992.104,2870.0,2668.75,61.25,50.16,-69.92,-457.52
347858.1276,140.91,-159.332,994.422,796.25,3018.75,-577.5,65.36,-76.0,-460.56
347858.1776,125.599,-158.966,989.786,-857.5,2791.25,-971.25,63.84,-74.48,-456.0
347858.2276,132.248,-170.983,990.457,-971.25,2966.25,-1408.75,65.36,-82.08,-468.16
347858.2776,133.651,-162.565,997.838,-682.5,2712.5,-113.75,57.76,-76.0,-465.12
347858.3276,132.919,-178.242,996.862,131.25,2362.5,-52.5,50.16,-79.04,-469.68
347858.3776,133.834,-155.123,991.555,1653.75,3692.5,-1190.0,66.88,-88.16,-463.6
347858.4276,132.614,-156.709,989.42,-770.0,2441.25,-1225.0,71.44,-86.64,-446.88
347858.4776,137.25,-165.737,989.054,-1321.25,3158.75,-35.0,56.24,-80.56,-460.56
347858.5276,132.614,-166.713,993.141,-1067.5,2782.5,-717.5,69.92,-80.56,-465.12
347858.5776,135.42,-174.338,991.677,-1610.0,3141.25,-761.25,63.84,-72.96,-452.96
347858.6276,133.285,-174.46,990.945,43.75,3456.25,-770.0,59.28,-79.04,-457.52
347858.6776,128.527,-170.8,992.897,148.75,2878.75,-997.5,44.08,-77.52,-468.16
347858.7276,132.553,-168.36,991.738,-210.0,2791.25,-367.5,65.36,-86.64,-457.52
347858.7776,131.577,-171.105,995.154,533.75,2756.25,-455.0,62.32,-85.12,-456.0
347858.8276,139.263,-165.798,992.47,551.25,3587.5,-315.0,69.92,-69.92,-468.16
347858.8776,124.318,-168.299,993.995,-1268.75,2975.0,-1181.25,53.2,-86.64,-471.2
347858.9276,134.322,-180.621,989.481,-183.75,3080.0,-1023.75,63.84,-77.52,-465.12
347858.9776,131.638,-166.713,994.727,166.25,2651.25,52.5,45.6,-76.0,-452.96
347859.0276,130.845,-171.898,993.812,-840.0,2450.0,-533.75,54.72,-68.4,-469.68
347859.0776,140.117,-173.362,991.433,437.5,3255.0,-726.25,65.36,-88.16,-469.68
347859.1276,126.697,-162.931,993.995,-245.0,2266.25,-1225.0,69.92,-82.08,-445.36
347859.1776,142.008,-169.519,990.579,-927.5,2625.0,-192.5,59.28,-76.0,-466.64
347859.2276,130.906,-170.434,994.971,-166.25,3447.5,-183.75,62.32,-72.96,-463.6
347859.2776,132.553,-173.789,995.947,-638.75,2782.5,-1688.75,66.88,-88.16,-454.48
347859.3276,135.908,-173.972,992.165,201.25,3333.75,-490.0,65.36,-80.56,-468.16
347859.3776,127.795,-169.092,993.934,35.0,2940.0,-1058.75,54.72,-82.08,-468.16
347859.4276,131.943,-172.752,992.409,-96.25,2528.75,-1207.5,66.88,-71.44,-454.48
347859.4776,138.409,-170.373,990.701,210.0,2931.25,-17.5,56.24,-82.08,-459.04
347859.5276,132.37,-166.591,993.08,560.0,3885.0,-1470.0,57.76,-74.48,-469.68
347859.5776,123.098,-166.347,994.605,-1601.25,2791.25,-1522.5,63.84,-83.6,-457.52
347859.6276,133.773,-181.414,991.25,665.0,3150.0,-306.25,68.4,-86.64,-451.44
347859.6776,129.93,-168.665,994.239,647.5,2660.0,-210.0,44.08,-74.48,-459.04
347859.7276,135.115,-176.29,995.154,-402.5,2590.0,-735.0,53.2,-82.08,-463.6
347859.7776,134.444,-165.798,992.714,1863.75,4042.5,-761.25,80.56,-72.96,-460.56
347859.8277,121.939,-154.269,992.714,-490.0,3220.0,726.25,68.4,-83.6,-465.12
347859.8776,133.041,-182.634,990.884,-8.75,2607.5,236.25,66.88,-77.52,-459.04
347859.9277,132.187,-175.619,994.971,962.5,2730.0,-910.0,63.84,-86.64,-463.6
347859.9776,135.969,-167.628,991.86,-70.0,2616.25,-1846.25,69.92,-82.08,-457.52
347860.0276,139.995,-174.216,990.213,857.5,3736.25,-1181.25,59.28,-80.56,-471.2
347860.0776,121.512,-163.968,995.398,813.75,2966.25,-1636.25,62.32,-80.56,-463.6
347860.1276,134.261,-172.447,990.579,-455.0,2143.75,-166.25,68.4,-82.08,-459.04
347860.1776,134.749,-172.63,991.25,1015.0,2511.25,-332.5,62.32,-92.72,-456.0
347860.2276,138.165,-165.737,991.128,-175.0,3132.5,-988.75,50.16,-77.52,-457.52
347860.2776,128.466,-166.774,994.727,-656.25,2992.5,-901.25,59.28,-83.6,-460.56
347860.3276,133.529,-175.192,984.662,-35.0,3543.75,-857.5,65.36,-86.64,-452.96
347860.3776,130.784,-156.709,993.324,-1478.75,2581.25,-542.5,48.64,-69.92,-457.52
347860.4276,133.102,-171.776,994.117,-1732.5,3027.5,210.0,62.32,-83.6,-478.8
347860.4776,136.335,-177.266,992.409,262.5,3412.5,-586.25,57.76,-77.52,-445.36
347860.5276,127.917,-168.848,991.982,-595.0,2721.25,-1443.75,65.36,-77.52,-446.88
347860.5776,142.069,-184.159,993.751,-166.25,2773.75,-2126.25,54.72,-71.44,-456.0
347860.6276,130.174,-168.238,993.995,1198.75,3675.0,113.75,63.84,-74.48,-459.04
347860.6776,123.22,-167.201,994.849,-280.0,2686.25,-953.75,62.32,-71.44,-451.44
347860.7276,139.263,-177.266,988.993,323.75,2896.25,-52.5,48.64,-80.56,-442.32
347860.7776,128.71,-170.068,991.555,603.75,3088.75,-288.75,60.8,-69.92,-454.48
347860.8276,135.664,-177.388,991.555,61.25,2222.5,-1015.0,69.92,-72.96,-466.64
347860.8776,133.834,-164.456,990.701,1356.25,2870.0,-428.75,62.32,-83.6,-463.6
347860.9276,137.86,-161.223,992.958,638.75,2948.75,-770.0,53.2,-72.96,-474.24
347860.9776,130.296,-170.678,990.457,-1050.0,2633.75,-831.25,51.68,-71.44,-451.44
347861.0276,135.664,-172.63,989.42,140.0,3071.25,-962.5,77.52,-76.0,-445.36
347861.0776,134.749,-168.604,995.52,-332.5,2511.25,-481.25,53.2,-83.6,-454.48
347861.1276,134.2,-170.068,996.252,-1093.75,2371.25,-358.75,66.88,-72.96,-466.64
347861.1776,137.616,-171.837,992.043,358.75,3500.0,-1032.5,88.16,-71.44,-452.96
347861.2276,133.651,-161.345,990.091,-568.75,2765.0,-892.5,42.56,-74.48,-457.52
347861.2776,136.335,-175.131,992.226,-927.5,3185.0,-586.25,56.24,-77.52,-465.12
347861.3276,132.858,-169.763,992.592,-385.0,3307.5,-875.0,65.36,-72.96,-452.96
347861.3776,134.993,-180.377,988.932,-673.75,2975.0,-1146.25,66.88,-72.96,-460.56
347861.4276,134.139,-178.608,988.993,463.75,3062.5,-682.5,53.2,-69.92,-471.2
347861.4776,132.492,-173.972,993.934,245.0,3167.5,-761.25,60.8,-74.48,-440.8
347861.5276,134.2,-176.961,990.213,586.25,2843.75,-980.0,65.36,-74.48,-457.52
347861.5776,136.335,-169.641,991.86,455.0,3115.0,-1041.25,63.84,-71.44,-457.52
347861.6276,136.457,-164.822,993.141,971.25,3780.0,-1155.0,59.28,-82.08,-454.48
347861.6776,130.357,-172.081,988.017,-1032.5,2590.0,-708.75,53.2,-72.96,-448.4
347861.7276,127.978,-172.63,993.202,691.25,2625.0,-586.25,51.68,-79.04,-440.8
347861.7776,135.115,-164.273,992.47,-568.75,2572.5,-175.0,69.92,-83.6,-463.6
347861.8276,139.751,-179.462,992.043,-52.5,2275.0,-262.5,65.36,-76.0,-474.24
347861.8776,135.42,-165.676,990.091,612.5,3605.0,-1356.25,60.8,-82.08,-456.0
347861.9276,134.932,-173.789,990.762,-980.0,2388.75,-1050.0,62.32,-79.04,-457.52
347861.9776,132.553,-177.571,992.104,-236.25,3193.75,-43.75,50.16,-82.08,-456.0
347862.0276,130.723,-173.667,992.287,-105.0,2782.5,-1242.5,69.92,-91.2,-456.0
347862.0776,135.237,-173.911,990.884,-113.75,2852.5,-638.75,71.44,-82.08,-465.12
347862.1276,131.516,-173.789,991.433,96.25,3071.25,-446.25,60.8,-77.52,-465.12
347862.1776,132.614,-173.118,993.019,-78.75,2852.5,-1120.0,59.28,-85.12,-457.52
347862.2276,138.165,-172.264,992.287,52.5,2887.5,-428.75,65.36,-80.56,-446.88
347862.2776,138.104,-177.815,993.69,1128.75,3158.75,-481.25,59.28,-80.56,-465.12
347862.3276,125.05,-163.785,992.409,-1067.5,3027.5,-1478.75,66.88,-74.48,-452.96
347862.3776,134.261,-180.987,989.054,-586.25,2756.25,-1233.75,60.8,-72.96,-451.44
347862.4276,130.967,-170.312,992.409,315.0,2791.25,-78.75,60.8,-71.44,-459.04
347862.4776,132.431,-177.51,994.3,-148.75,2896.25,183.75,59.28,-74.48,-457.52
347862.5276,135.115,-175.741,989.725,1242.5,2633.75,78.75,65.36,-72.96,-468.16
347862.5776,127.551,-164.761,994.544,612.5,2546.25,-1583.75,68.4,-77.52,-457.52
347862.6276,138.287,-164.944,988.749,-455.0,2581.25,-1111.25,51.68,-77.52,-456.0
347862.6776,133.59,-170.922,991.616,-323.75,2765.0,-148.75,59.28,-74.48,-469.68
347862.7276,137.067,-168.97,994.056,-385.0,2415.0,-962.5,66.88,-69.92,-456.0
347862.7776,138.47,-173.362,990.701,-910.0,3062.5,-472.5,56.24,-76.0,-443.84
347862.8276,132.492,-175.07,990.823,-455.0,3106.25,-892.5,68.4,-66.88,-462.08
347862.8776,134.017,-178.364,990.762,-253.75,2721.25,-875.0,77.52,-82.08,-456.0
347862.9276,140.849,-172.752,990.579,157.5,2756.25,-210.0,60.8,-83.6,-462.08
347862.9777,140.117,-173.972,989.847,472.5,3132.5,-376.25,44.08,-76.0,-456.0
347863.0276,125.538,-170.434,991.616,-1006.25,3193.75,-1408.75,60.8,-79.04,-465.12
347863.0777,137.799,-178.852,986.004,52.5,3263.75,-1032.5,54.72,-83.6,-462.08
347863.1276,132.492,-175.375,989.847,420.0,2983.75,-227.5,50.16,-74.48,-449.92
347863.1776,131.455,-175.314,996.862,-717.5,2957.5,-770.0,65.36,-83.6,-465.12
347863.2276,137.616,-179.95,989.786,787.5,3220.0,-840.0,68.4,-74.48,-454.48
347863.2776,125.233,-167.689,992.958,-113.75,2905.0,-831.25,66.88,-83.6,-457.52
347863.3276,139.446,-178.364,990.64,-367.5,2975.0,-700.0,57.76,-76.0,-469.68
347863.3776,135.481,-179.096,991.189,323.75,3123.75,-490.0,60.8,-80.56,-452.96
347863.4276,129.625,-171.044,989.298,0.0,2922.5,-1487.5,63.84,-74.48,-451.44
347863.4776,137.189,-173.484,990.091,-280.0,2940.0,-577.5,66.88,-76.0,-459.04
347863.5276,129.686,-175.253,992.104,-8.75,3045.0,-595.0,63.84,-68.4,-449.92
347863.5776,133.773,-179.828,991.799,140.0,2213.75,-376.25,68.4,-77.52,-451.44
347863.6276,138.714,-177.144,989.42,805.0,2878.75,78.75,50.16,-76.0,-454.48
347863.6776,140.666,-168.909,991.433,673.75,3360.0,-717.5,39.52,-69.92,-471.2
347863.7276,128.649,-166.408,993.873,-1225.0,3255.0,-1067.5,57.76,-85.12,-451.44
347863.7776,133.407,-181.658,988.444,-35.0,2957.5,-848.75,44.08,-83.6,-459.04
347863.8276,134.017,-173.179,993.446,-472.5,2887.5,-201.25,60.8,-82.08,-460.56
347863.8776,131.211,-179.889,997.777,-560.0,2931.25,-551.25,62.32,-86.64,-460.56
347863.9276,138.104,-177.205,991.311,1478.75,3841.25,-1137.5,66.88,-79.04,-452.96
347863.9776,126.636,-164.517,991.738,787.5,2948.75,-1400.0,47.12,-83.6,-463.6
347864.0276,137.006,-171.654,989.054,-402.5,3325.0,-367.5,63.84,-79.04,-459.04
347864.0776,132.431,-172.63,992.409,-70.0,3237.5,-717.5,66.88,-79.04,-449.92
347864.1276,133.163,-172.081,993.995,-691.25,2852.5,-1251.25,60.8,-79.04,-448.4
347864.1776,132.065,-177.388,989.786,332.5,3018.75,-638.75,60.8,-74.48,-465.12
347864.2276,132.614,-173.545,990.823,-17.5,2983.75,-840.0,62.32,-80.56,-439.28
347864.2776,136.213,-175.802,994.3,-140.0,2668.75,-665.0,72.96,-65.36,-452.96
347864.3276,133.468,-172.935,995.947,253.75,2913.75,-376.25,53.2,-85.12,-457.52
347864.3776,138.226,-174.338,993.202,-420.0,3876.25,-787.5,54.72,-74.48,-465.12
347864.4276,130.357,-187.758,986.797,472.5,2835.0,-1347.5,62.32,-80.56,-459.04
347864.4776,133.59,-177.754,989.054,1706.25,3027.5,-1041.25,44.08,-77.52,-442.32
347864.5276,135.786,-163.48,994.3,17.5,2922.5,-306.25,72.96,-82.08,-459.04
347864.5776,132.675,-167.384,990.396,-533.75,2712.5,-621.25,72.96,-80.56,-456.0
347864.6276,129.259,-168.787,994.117,78.75,3500.0,-1023.75,56.24,-69.92,-459.04
347864.6776,135.786,-174.826,994.422,-918.75,2703.75,-1085.0,60.8,-72.96,-456.0
347864.7276,136.03,-179.279,992.165,218.75,2931.25,-227.5,63.84,-76.0,-465.12
347864.7776,130.845,-166.713,992.775,35.0,3115.0,-1067.5,65.36,-69.92,-446.88
347864.8276,131.333,-171.959,990.457,-1146.25,2642.5,-1225.0,42.56,-91.2,-454.48
347864.8776,132.736,-180.743,992.592,236.25,2852.5,-761.25,56.24,-86.64,-460.56
347864.9276,130.54,-176.961,991.86,-140.0,2450.0,-831.25,65.36,-69.92,-452.96
347864.9776,138.592,-181.597,987.773,656.25,3097.5,-717.5,53.2,-85.12,-462.08
347865.0276,138.531,-168.909,990.396,1391.25,3263.75,-507.5,66.88,-77.52,-459.04
347865.0776,129.015,-161.955,993.751,-87.5,3605.0,-1085.0,71.44,-71.44,-456.0
347865.1276,133.773,-176.961,984.296,-288.75,2835.0,-1277.5,65.36,-76.0,-452.96
347865.1776,132.004,-167.75,994.544,96.25,2677.5,-323.75,51.68,-77.52,-463.6
347865.2276,134.2,-170.8,993.568,-831.25,2765.0,-376.25,59.28,-85.12,-468.16
347865.2776,143.594,-181.902,988.505,1102.5,3010.0,-857.5,53.2,-76.0,-457.52
347865.3276,130.479,-161.162,993.141,96.25,3648.75,-1225.0,60.8,-71.44,-460.56
347865.3776,136.579,-176.534,988.871,-323.75,3421.25,-1417.5,48.64,-72.96,-465.12
347865.4276,130.357,-177.266,992.714,78.75,3351.25,52.5,66.88,-62.32,-454.48
347865.4776,130.479,-175.985,993.934,323.75,3036.25,-402.5,72.96,-83.6,-456.0
347865.5276,132.614,-173.24,991.067,481.25,2948.75,-901.25,31.92,-88.16,-451.44
347865.5776,131.333,-170.556,990.884,595.0,3036.25,-1050.0,54.72,-82.08,-463.6
347865.6276,131.577,-167.994,992.836,-332.5,2861.25,-1172.5,68.4,-79.04,-446.88
347865.6776,137.128,-168.543,991.006,-411.25,3010.0,-385.0,47.12,-85.12,-463.6
347865.7276,133.834,-169.153,993.263,192.5,3902.5,-647.5,59.28,-76.0,-459.04
347865.7776,127.551,-178.486,990.396,-1032.5,2467.5,-1513.75,47.12,-80.56,-457.52
347865.8276,134.2,-181.353,988.078,323.75,3001.25,-700.0,50.16,-74.48,-463.6
347865.8776,128.588,-172.569,991.738,595.0,2861.25,-323.75,60.8,-92.72,-472.72
347865.9276,129.991,-175.131,994.788,-183.75,2773.75,-840.0,62.32,-79.04,-465.12
347865.9776,138.714,-168.482,991.433,1295.0,3990.0,-1111.25,66.88,-80.56,-460.56
347866.0278,130.967,-164.7,990.884,-236.25,2800.0,-1295.0,59.28,-72.96,-446.88
347866.0776,133.651,-169.397,991.982,-595.0,3027.5,-358.75,60.8,-85.12,-468.16
347866.1285,127.246,-172.447,994.422,-61.25,2712.5,-428.75,53.2,-74.48,-462.08
347866.1776,131.455,-170.922,994.117,-892.5,2625.0,-875.0,66.88,-86.64,-454.48
347866.2276,132.065,-181.475,990.518,-140.0,2712.5,-595.0,60.8,-77.52,-466.64
347866.2776,131.455,-173.057,991.921,17.5,2458.75,-1058.75,65.36,-72.96,-452.96
347866.3276,135.542,-171.837,992.531,-61.25,2756.25,-227.5,62.32,-76.0,-452.96
347866.3776,134.566,-177.144,994.239,131.25,3211.25,-490.0,69.92,-83.6,-466.64
347866.4276,134.871,-166.591,990.213,17.5,3780.0,-822.5,50.16,-83.6,-466.64
347866.4776,135.298,-179.584,989.298,-997.5,3027.5,-708.75,69.92,-83.6,-463.6
347866.5276,131.821,-175.009,990.335,288.75,3080.0,-411.25,53.2,-80.56,-456.0
347866.5776,132.919,-170.922,995.642,-192.5,2878.75,-183.75,66.88,-71.44,-457.52
347866.6276,136.457,-183.305,990.945,708.75,2572.5,-446.25,63.84,-72.96,-465.12
347866.6776,130.235,-169.153,990.762,997.5,3981.25,-1461.25,66.88,-83.6,-457.52
347866.7276,127.856,-169.824,992.775,-542.5,3132.5,-1338.75,63.84,-80.56,-469.68
347866.7776,128.1,-177.266,992.348,-140.0,3167.5,315.0,56.24,-82.08,-449.92
347866.8276,128.527,-174.948,993.812,-332.5,3167.5,-402.5,59.28,-80.56,-459.04
347866.8776,133.163,-183.488,991.128,-157.5,2852.5,-1023.75,48.64,-65.36,-465.12
347866.9276,130.052,-178.608,992.165,691.25,3167.5,-595.0,66.88,-79.04,-454.48
347866.9776,127.002,-172.874,992.897,358.75,2616.25,-778.75,54.72,-80.56,-462.08
347867.0276,136.274,-172.874,988.566,463.75,3010.0,-595.0,63.84,-82.08,-451.44
347867.0776,137.067,-166.347,995.825,8.75,2668.75,-280.0,60.8,-83.6,-459.04
347867.1276,122.854,-170.19,996.496,-1163.75,3237.5,-770.0,54.72,-76.0,-465.12
347867.1776,132.797,-182.573,988.2,-647.5,3027.5,-883.75,74.48,-79.04,-460.56
347867.2276,127.307,-173.057,994.971,411.25,3088.75,-735.0,53.2,-74.48,-465.12
347867.2776,132.126,-171.166,994.849,-533.75,3027.5,-481.25,51.68,-74.48,-466.64
347867.3276,135.969,-174.582,990.213,1478.75,3237.5,-761.25,66.88,-83.6,-459.04
347867.3776,123.647,-162.26,993.141,52.5,2651.25,-1601.25,68.4,-85.12,-466.64
347867.4276,135.115,-169.824,990.335,-1198.75,2870.0,-656.25,62.32,-82.08,-462.08
347867.4776,126.697,-176.229,994.178,-306.25,3237.5,-26.25,76.0,-82.08,-449.92
347867.5276,129.747,-175.253,994.971,-691.25,2817.5,-1093.75,77.52,-88.16,-451.44
347867.5776,129.747,-179.889,993.446,227.5,3053.75,-822.5,68.4,-83.6,-466.64
347867.6276,129.442,-174.399,990.64,498.75,2782.5,-1391.25,66.88,-71.44,-465.12
347867.6776,130.784,-176.473,993.812,332.5,2502.5,-1102.5,54.72,-85.12,-460.56
347867.7276,133.834,-172.691,990.64,770.0,2800.0,-612.5,60.8,-85.12,-463.6
347867.7776,136.823,-170.129,993.995,691.25,2922.5,-586.25,59.28,-82.08,-463.6
347867.8276,124.44,-172.264,992.043,-945.0,3360.0,-1303.75,71.44,-85.12,-466.64
347867.8776,131.76,-180.133,989.908,393.75,3115.0,-1207.5,68.4,-83.6,-448.4
347867.9276,126.941,-170.983,992.897,612.5,2817.5,-507.5,53.2,-77.52,-468.16
347867.9776,129.93,-174.094,995.886,-463.75,2826.25,-236.25,68.4,-74.48,-463.6
347868.0276,137.921,-176.351,990.091,936.25,2625.0,-603.75,50.16,-80.56,-434.72
347868.0776,123.037,-166.53,993.812,612.5,2957.5,-1487.5,54.72,-77.52,-468.16
347868.1276,135.786,-174.033,990.762,-166.25,2975.0,-805.0,66.88,-72.96,-465.12
347868.1776,129.076,-175.497,991.067,411.25,3010.0,-288.75,68.4,-76.0,-451.44
347868.2276,125.965,-168.36,993.202,-113.75,2668.75,-1067.5,59.28,-79.04,-449.92
347868.2776,134.749,-174.277,990.701,-568.75,2703.75,-516.25,59.28,-76.0,-451.44
347868.3276,129.137,-172.813,994.239,-8.75,3097.5,-533.75,69.92,-88.16,-474.24
347868.3776,130.845,-172.447,992.287,-586.25,2948.75,-822.5,62.32,-86.64,-446.88
347868.4276,135.725,-173.911,993.263,-402.5,2957.5,-288.75,53.2,-86.64,-454.48
347868.4776,135.603,-172.935,991.616,743.75,3797.5,-638.75,60.8,-71.44,-471.2
347868.5276,119.377,-168.482,994.361,-901.25,3237.5,-1443.75,50.16,-77.52,-442.32
347868.5776,130.967,-182.024,990.213,-253.75,3088.75,-831.25,50.16,-82.08,-460.56
347868.6276,122.671,-177.754,989.42,420.0,2852.5,-17.5,57.76,-82.08,-462.08
347868.6776,131.577,-173.728,993.385,-420.0,3062.5,-507.5,65.36,-85.12,-454.48
347868.7276,137.799,-181.719,989.603,1233.75,3832.5,-1155.0,72.96,-80.56,-448.4
347868.7776,123.22,-165.981,992.287,883.75,3587.5,-1793.75,62.32,-71.44,-457.52
347868.8276,129.32,-167.14,991.128,-350.0,2843.75,-848.75,66.88,-83.6,-456.0
347868.8776,130.967,-174.338,990.274,35.0,3010.0,157.5,74.48,-88.16,-448.4
347868.9276,128.222,-167.201,991.982,-87.5,2581.25,-980.0,51.68,-92.72,-457.52
347868.9776,134.566,-176.351,992.714,-358.75,2703.75,-420.0,50.16,-80.56,-468.16
347869.0276,130.967,-175.009,991.006,393.75,2948.75,-472.5,48.64,-74.48,-456.0
347869.0778,128.161,-171.532,992.592,-875.0,2975.0,-805.0,68.4,-86.64,-469.68
347869.1276,133.895,-177.266,992.348,70.0,2870.0,-682.5,42.56,-85.12,-462.08
347869.1777,129.747,-174.704,994.178,883.75,3298.75,-350.0,72.96,-77.52,-459.04
347869.2276,120.475,-166.835,995.947,-997.5,2983.75,-1452.5,72.96,-92.72,-459.04
347869.2776,131.638,-180.133,984.601,-437.5,2800.0,-647.5,41.04,-71.44,-456.0
347869.3276,125.294,-171.837,992.104,630.0,2563.75,87.5,50.16,-77.52,-472.72
347869.3776,131.821,-172.508,993.934,35.0,2555.0,-271.25,76.0,-80.56,-454.48
347869.4276,135.359,-172.508,990.518,962.5,2931.25,-481.25,63.84,-86.64,-445.36
347869.4776,121.817,-164.151,995.215,-358.75,2878.75,-1233.75,62.32,-74.48,-466.64
347869.5276,133.285,-169.153,991.86,-726.25,2738.75,-551.25,53.2,-80.56,-439.28
347869.5776,126.392,-177.388,994.239,-323.75,2983.75,-96.25,60.8,-62.32,-449.92
347869.6276,126.758,-173.606,991.067,-35.0,2703.75,-1015.0,50.16,-85.12,-454.48
347869.6776,131.333,-175.863,990.213,-113.75,2931.25,-498.75,68.4,-85.12,-452.96
347869.7276,127.246,-177.998,992.836,306.25,2966.25,-682.5,76.0,-83.6,-454.48
347869.7776,128.283,-172.142,993.568,-262.5,2957.5,-875.0,62.32,-79.04,-463.6
347869.8276,134.078,-178.242,989.847,656.25,3333.75,-840.0,62.32,-74.48,-477.28
347869.8776,129.869,-169.458,993.385,428.75,2896.25,-726.25,63.84,-76.0,-463.6
347869.9276,127.185,-166.408,992.287,-630.0,3780.0,-717.5,62.32,-80.56,-452.96
347869.9776,125.111,-170.556,987.773,-1085.0,2878.75,-1120.0,60.8,-79.04,-462.08
347870.0276,122.488,-167.689,990.03,-1627.5,3718.75,-1872.5,76.0,-89.68,-469.68
347870.0776,129.015,-183.976,995.093,-1120.0,3158.75,-892.5,60.8,-80.56,-451.44
347870.1276,131.821,-187.453,994.849,525.0,2362.5,-122.5,71.44,-74.48,-454.48
347870.1776,125.233,-178.059,992.714,962.5,2782.5,-1015.0,53.2,-82.08,-449.92
347870.2276,128.954,-170.983,990.64,761.25,2835.0,-1067.5,65.36,-76.0,-466.64
347870.2776,124.501,-171.959,989.481,1531.25,1435.0,-1671.25,68.4,-72.96,-451.44
347870.3276,138.897,-172.386,987.407,280.0,2572.5,-1155.0,50.16,-69.92,-454.48
347870.3776,131.272,-170.922,991.921,288.75,2861.25,-148.75,68.4,-69.92,-457.52
347870.4276,131.394,-172.203,988.627,-297.5,2800.0,-560.0,74.48,-79.04,-459.04
347870.4776,132.065,-173.606,992.958,-17.5,3027.5,-166.25,56.24,-72.96,-466.64
347870.5276,131.15,-176.717,989.481,-131.25,3237.5,-691.25,60.8,-89.68,-462.08
347870.5776,138.043,-174.033,993.629,306.25,3088.75,-297.5,72.96,-72.96,-451.44
347870.6276,126.026,-169.214,994.3,-822.5,3850.0,-726.25,54.72,-69.92,-454.48
347870.6776,129.137,-183.427,991.616,-236.25,2843.75,-1391.25,60.8,-74.48,-468.16
347870.7276,130.296,-177.327,991.799,376.25,3185.0,-621.25,63.84,-72.96,-462.08
347870.7776,127.002,-179.523,991.982,-805.0,2712.5,-210.0,60.8,-76.0,-445.36
347870.8276,138.836,-186.172,989.908,1111.25,3403.75,-210.0,47.12,-77.52,-462.08
347870.8776,124.867,-169.702,997.106,1067.5,3465.0,-1618.75,72.96,-77.52,-465.12
347870.9276,133.346,-170.373,993.202,-717.5,3027.5,-1391.25,62.32,-80.56,-457.52
347870.9776,129.564,-177.51,993.263,87.5,3150.0,113.75,60.8,-86.64,-454.48
347871.0276,126.941,-169.641,993.324,175.0,2896.25,-1128.75,59.28,-86.64,-457.52
347871.0776,133.956,-176.29,990.579,-568.75,2843.75,-647.5,56.24,-77.52,-460.56
347871.1276,129.564,-179.95,988.749,183.75,3403.75,-472.5,66.88,-83.6,-466.64
347871.1776,125.111,-177.266,991.25,-516.25,2572.5,-1277.5,60.8,-85.12,-454.48
347871.2276,135.786,-177.327,988.017,0.0,2738.75,-647.5,62.32,-82.08,-471.2
347871.2776,133.773,-178.791,994.239,822.5,2957.5,-271.25,60.8,-74.48,-451.44
347871.3276,124.623,-165.371,991.006,428.75,3657.5,-1522.5,62.32,-80.56,-443.84
347871.3776,128.954,-178.852,989.359,-1137.5,2651.25,-1155.0,53.2,-80.56,-454.48
347871.4276,125.904,-173.972,993.568,533.75,3001.25,-157.5,54.72,-94.24,-454.48
347871.4776,129.93,-170.251,993.995,-542.5,2677.5,-96.25,68.4,-80.56,-454.48
347871.5276,139.568,-182.024,990.457,761.25,2922.5,-358.75,50.16,-76.0,-465.12
347871.5776,124.501,-171.288,989.42,796.25,3701.25,-1330.0,57.76,-71.44,-460.56
347871.6276,131.455,-168.177,988.627,-472.5,2878.75,-1172.5,71.44,-74.48,-456.0
347871.6776,125.599,-182.268,993.019,-358.75,3167.5,367.5,60.8,-91.2,-456.0
347871.7276,125.721,-179.035,994.91,140.0,2957.5,-945.0,50.16,-89.68,-449.92
347871.7776,130.845,-173.667,991.555,-507.5,2887.5,-726.25,63.84,-72.96,-448.4
347871.8276,129.381,-182.634,991.86,131.25,3106.25,-420.0,71.44,-83.6,-449.92
347871.8776,124.562,-172.691,989.908,-26.25,3036.25,-1032.5,60.8,-83.6,-463.6
347871.9276,132.309,-178.669,990.274,-61.25,2992.5,-656.25,62.32,-74.48,-468.16
347871.9776,133.712,-178.791,990.884,-78.75,3088.75,-43.75,53.2,-82.08,-454.48
347872.0276,115.9,-168.604,994.727,-455.0,3185.0,-1575.0,44.08,-83.6,-445.36
347872.0776,126.941,-181.292,988.444,-595.0,2493.75,-1531.25,60.8,-83.6,-463.6
347872.1278,125.538,-177.998,992.043,183.75,2870.0,113.75,53.2,-82.08,-454.48
347872.1776,125.477,-180.194,992.592,-918.75,2721.25,-665.0,65.36,-82.08,-454.48
347872.2277,137.799,-183.244,991.982,743.75,2730.0,-542.5,62.32,-82.08,-454.48
347872.2776,118.462,-168.909,993.08,472.5,3027.5,-1417.5,45.6,-76.0,-465.12
347872.3276,127.185,-169.824,990.64,-227.5,2336.25,-1251.25,77.52,-74.48,-463.6
347872.3776,128.1,-176.595,990.762,-507.5,3097.5,463.75,60.8,-89.68,-456.0
347872.4276,126.026,-177.022,993.507,-551.25,2773.75,-1190.0,48.64,-88.16,-471.2
347872.4776,129.137,-180.194,991.311,-455.0,2747.5,-726.25,47.12,-71.44,-457.52
347872.5276,129.808,-178.913,991.86,-61.25,2791.25,-245.0,62.32,-86.64,-460.56
347872.5776,125.172,-178.852,992.897,-157.5,2791.25,-945.0,63.84,-72.96,-452.96
347872.6276,131.882,-179.218,993.202,463.75,2852.5,-560.0,62.32,-79.04,-471.2
347872.6776,131.455,-175.497,991.433,472.5,2651.25,-358.75,79.04,-68.4,-457.52
347872.7276,122.366,-176.961,992.775,-568.75,2957.5,-883.75,68.4,-76.0,-452.96
347872.7776,131.394,-183.366,988.2,393.75,2940.0,-507.5,54.72,-74.48,-462.08
347872.8276,128.832,-173.667,994.483,822.5,2388.75,-201.25,60.8,-76.0,-460.56
347872.8776,127.734,-175.863,991.799,332.5,2371.25,-376.25,60.8,-82.08,-442.32
347872.9276,134.871,-176.473,990.701,297.5,3115.0,-367.5,48.64,-79.04,-456.0
347872.9776,121.695,-166.286,992.592,-1155.0,2677.5,-1321.25,54.72,-79.04,-477.28
347873.0276,132.675,-184.708,990.762,-665.0,2948.75,-288.75,68.4,-77.52,-454.48
347873.0776,127.124,-183.427,992.836,157.5,2931.25,-245.0,65.36,-76.0,-459.04
347873.1276,133.224,-178.181,989.481,61.25,2537.5,-1128.75,59.28,-71.44,-459.04
347873.1776,129.93,-179.218,989.908,481.25,2747.5,-770.0,69.92,-77.52,-456.0
347873.2276,132.187,-175.07,988.383,-70.0,2563.75,-778.75,60.8,-76.0,-456.0
347873.2776,135.481,-182.817,990.091,-262.5,3141.25,-297.5,65.36,-85.12,-462.08
347873.3276,136.518,-181.963,992.348,210.0,2896.25,-577.5,65.36,-76.0,-449.92
347873.3776,126.941,-172.508,994.117,131.25,3806.25,-1487.5,79.04,-88.16,-459.04
347873.4276,127.185,-178.12,989.237,-673.75,3062.5,-1400.0,59.28,-82.08,-460.56
347873.4776,127.734,-175.558,991.128,761.25,2940.0,-1058.75,60.8,-72.96,-465.12
347873.5276,128.71,-175.619,991.128,-805.0,2940.0,-78.75,69.92,-83.6,-446.88
347873.5776,136.945,-185.501,990.579,17.5,2406.25,-192.5,65.36,-77.52,-457.52
347873.6276,120.658,-177.754,991.921,647.5,3456.25,-2038.75,66.88,-76.0,-472.72
347873.6776,123.403,-171.166,994.056,-463.75,2196.25,-1951.25,63.84,-82.08,-466.64
347873.7276,133.163,-180.743,989.908,253.75,2528.75,306.25,63.84,-79.04,-456.0
347873.7776,129.32,-173.789,991.738,-157.5,2371.25,-743.75,50.16,-72.96,-469.68
347873.8276,135.298,-182.024,992.104,-463.75,2730.0,-1163.75,63.84,-79.04,-483.36
347873.8776,133.529,-179.34,991.067,-218.75,3342.5,-595.0,66.88,-80.56,-456.0
347873.9276,128.283,-179.34,988.505,52.5,2581.25,-1076.25,51.68,-85.12,-452.96
347873.9776,139.263,-176.046,991.616,341.25,2677.5,-96.25,51.68,-72.96,-462.08
347874.0276,136.762,-179.706,993.385,560.0,3666.25,-778.75,72.96,-72.96,-466.64
347874.0776,127.246,-177.571,992.531,-446.25,2336.25,-1408.75,60.8,-80.56,-463.6
347874.1276,134.81,-181.231,990.579,280.0,3325.0,-43.75,59.28,-80.56,-454.48
347874.1776,130.113,-170.007,992.165,-8.75,3228.75,-218.75,59.28,-82.08,-454.48
347874.2276,131.516,-180.072,993.019,-1321.25,2983.75,-551.25,79.04,-83.6,-452.96
347874.2776,135.603,-182.329,991.616,402.5,4217.5,-910.0,60.8,-80.56,-454.48
347874.3276,126.453,-173.362,993.995,-297.5,2432.5,-1076.25,53.2,-82.08,-466.64
347874.3776,129.381,-178.974,987.529,-210.0,3185.0,673.75,74.48,-79.04,-459.04
347874.4276,127.917,-177.388,990.091,-8.75,2730.0,78.75,53.2,-80.56,-452.96
347874.4776,135.542,-179.401,990.884,-411.25,2808.75,-586.25,59.28,-76.0,-463.6
347874.5276,133.346,-185.623,989.115,113.75,3272.5,-603.75,53.2,-69.92,-456.0
347874.5776,126.27,-176.351,987.468,43.75,2555.0,-1478.75,62.32,-79.04,-463.6
347874.6276,134.017,-177.693,993.751,-8.75,3307.5,-183.75,53.2,-79.04,-456.0
347874.6776,131.455,-179.706,993.385,498.75,3561.25,-385.0,66.88,-76.0,-469.68
347874.7276,121.024,-177.022,988.871,-1058.75,2607.5,-1277.5,72.96,-77.52,-454.48
347874.7776,135.298,-185.989,987.468,-166.25,3010.0,-516.25,50.16,-76.0,-448.4
347874.8276,131.333,-174.704,993.751,481.25,2677.5,35.0,60.8,-66.88,-457.52
347874.8776,132.858,-181.292,991.738,-210.0,2362.5,122.5,69.92,-79.04,-460.56
347874.9276,139.263,-181.109,990.091,638.75,3788.75,-743.75,56.24,-85.12,-468.16
347874.9776,128.344,-172.386,989.664,-367.5,3036.25,-1881.25,59.28,-71.44,-463.6
347875.0276,132.98,-182.024,992.043,-778.75,3430.0,-656.25,53.2,-74.48,-451.44
347875.0776,127.307,-176.778,992.043,253.75,3403.75,-411.25,68.4,-74.48,-456.0
347875.1276,129.259,-175.924,991.372,-647.5,3552.5,-1163.75,63.84,-80.56,-449.92
347875.1778,124.257,-182.512,990.823,-297.5,3115.0,-700.0,72.96,-80.56,-463.6
347875.2276,125.904,-182.756,992.958,-78.75,2231.25,-315.0,72.96,-82.08,-462.08
347875.2778,133.651,-181.17,992.897,262.5,3211.25,-358.75,54.72,-79.04,-463.6
347875.3276,137.067,-178.608,993.873,568.75,2905.0,-866.25,54.72,-72.96,-471.2
347875.3776,124.44,-182.39,990.457,-752.5,2756.25,-787.5,65.36,-74.48,-449.92
347875.4276,131.821,-184.22,984.845,43.75,2983.75,-787.5,71.44,-69.92,-465.12
347875.4776,132.858,-182.268,993.507,175.0,2668.75,-341.25,60.8,-68.4,-469.68
347875.5276,130.296,-184.891,993.873,-175.0,3272.5,-253.75,69.92,-83.6,-459.04
347875.5776,134.444,-177.876,989.908,1050.0,4130.0,-1417.5,60.8,-83.6,-451.44
347875.6276,121.817,-170.8,993.263,166.25,3228.75,-1566.25,59.28,-72.96,-471.2
347875.6776,123.952,-178.852,992.531,-218.75,3088.75,-630.0,45.6,-76.0,-463.6
347875.7276,125.294,-177.51,990.152,61.25,2598.75,-498.75,77.52,-72.96,-451.44
347875.7776,128.405,-175.619,992.958,-568.75,2651.25,-813.75,62.32,-83.6,-460.56
347875.8276,130.418,-184.22,990.335,113.75,3080.0,-446.25,48.64,-72.96,-449.92
347875.8776,128.039,-178.913,991.067,332.5,2940.0,-542.5,79.04,-76.0,-469.68
347875.9276,132.431,-180.011,990.396,612.5,2957.5,-1041.25,51.68,-77.52,-460.56
347875.9776,132.065,-176.168,991.616,175.0,2817.5,-472.5,60.8,-72.96,-469.68
347876.0276,128.222,-171.837,992.592,-183.75,3683.75,-647.5,60.8,-77.52,-448.4
347876.0776,127.612,-187.453,988.993,-315.0,2458.75,-1041.25,51.68,-79.04,-451.44
347876.1276,131.333,-185.989,991.982,927.5,2773.75,-743.75,56.24,-76.0,-451.44
347876.1776,131.089,-177.083,995.215,218.75,3053.75,-323.75,50.16,-77.52,-477.28
347876.2276,136.64,-179.096,989.237,848.75,3176.25,-866.25,71.44,-80.56,-449.92
347876.2776,124.318,-170.922,993.019,595.0,3683.75,-1566.25,51.68,-72.96,-459.04
347876.3276,133.712,-174.521,990.823,-875.0,2896.25,-971.25,51.68,-71.44,-449.92
347876.3776,129.015,-178.303,991.372,-402.5,3325.0,52.5,59.28,-74.48,-463.6
347876.4276,124.562,-173.484,993.385,-533.75,2677.5,-1181.25,68.4,-91.2,-456.0
347876.4776,133.285,-181.902,990.518,-525.0,2870.0,-402.5,72.96,-72.96,-463.6
347876.5276,127.612,-181.414,993.446,-131.25,2940.0,-96.25,53.2,-79.04,-466.64
347876.5776,131.699,-182.329,990.823,-393.75,2257.5,-848.75,60.8,-86.64,-452.96
347876.6276,135.847,-183.61,990.945,271.25,2843.75,-358.75,66.88,-77.52,-451.44
347876.6776,129.808,-175.985,990.701,796.25,3596.25,-988.75,62.32,-77.52,-460.56
347876.7276,124.013,-181.597,990.945,-1583.75,2782.5,-1198.75,59.28,-74.48,-456.0
347876.7776,131.089,-190.808,988.993,-78.75,3045.0,-700.0,66.88,-91.2,-460.56
347876.8276,125.233,-176.595,992.958,113.75,2625.0,-428.75,57.76,-72.96,-449.92
347876.8776,127.49,-179.462,992.653,-367.5,3088.75,-323.75,57.76,-80.56,-471.2
347876.9276,136.579,-180.804,991.006,1023.75,3290.0,-1006.25,66.88,-89.68,-465.12
347876.9776,118.889,-167.933,991.799,350.0,3211.25,-1566.25,72.96,-82.08,-459.04
347877.0276,133.102,-178.791,990.213,-997.5,3123.75,-306.25,71.44,-76.0,-452.96
347877.0776,127.246,-178.547,992.836,166.25,2948.75,-525.0,68.4,-86.64,-436.24
347877.1276,128.832,-175.436,990.152,-656.25,2747.5,-1128.75,66.88,-77.52,-466.64
347877.1776,131.943,-186.66,988.322,-35.0,2975.0,-271.25,62.32,-77.52,-466.64
347877.2276,130.662,-183.793,989.664,148.75,2931.25,-673.75,62.32,-79.04,-462.08
347877.2776,126.575,-182.268,991.86,-262.5,2546.25,-665.0,72.96,-77.52,-446.88
347877.3276,130.967,-181.109,992.714,437.5,3010.0,-376.25,54.72,-82.08,-451.44
347877.3776,133.102,-176.839,987.102,980.0,3132.5,-577.5,65.36,-80.56,-462.08
347877.4276,121.878,-177.388,992.348,-1715.0,2677.5,-1058.75,59.28,-69.92,-457.52
347877.4776,131.577,-190.808,988.871,-323.75,3176.25,-560.0,57.76,-68.4,-457.52
347877.5276,124.623,-177.51,991.677,411.25,2808.75,-253.75,60.8,-82.08,-460.56
347877.5776,129.137,-185.196,995.642,-183.75,2905.0,-288.75,79.04,-76.0,-466.64
347877.6276,132.675,-184.952,989.786,1216.25,3228.75,-770.0,59.28,-83.6,-448.4
347877.6776,122.732,-169.397,991.494,-227.5,2703.75,-1207.5,54.72,-71.44,-454.48
347877.7276,130.662,-181.597,989.969,-358.75,2957.5,-446.25,53.2,-88.16,-459.04
347877.7776,126.758,-182.817,992.714,411.25,2712.5,-78.75,62.32,-76.0,-448.4
347877.8276,129.625,-178.181,991.799,-262.5,2738.75,-787.5,60.8,-79.04,-451.44
347877.8776,130.296,-180.682,991.067,-87.5,2765.0,-463.75,51.68,-72.96,-463.6
347877.9276,130.113,-179.95,991.006,323.75,2738.75,-446.25,59.28,-74.48,-468.16
347877.9776,128.588,-179.096,991.921,-498.75,2703.75,-507.5,68.4,-82.08,-459.04
347878.0276,132.797,-180.865,987.956,385.0,3307.5,-665.0,44.08,-85.12,-451.44
347878.0776,136.213,-176.656,992.897,621.25,3246.25,-708.75,60.8,-85.12,-472.72
347878.1276,124.806,-176.351,990.823,-490.0,3675.0,-910.0,68.4,-74.48,-446.88
347878.1776,133.224,-187.27,986.187,332.5,3246.25,-1207.5,74.48,-80.56,-462.08
347878.2278,127.124,-181.292,990.762,743.75,3062.5,-971.25,53.2,-71.44,-459.04
347878.2776,125.355,-184.83,996.252,157.5,3036.25,-595.0,72.96,-85.12,-462.08
347878.3277,135.786,-181.658,989.542,1575.0,2493.75,-490.0,68.4,-76.0,-456.0
347878.3776,121.146,-165.371,994.056,647.5,2966.25,-1513.75,69.92,-76.0,-462.08
347878.4276,128.71,-175.375,989.359,-420.0,2537.5,-315.0,51.68,-86.64,-460.56
347878.4776,126.209,-175.253,991.128,297.5,2563.75,385.0,53.2,-71.44,-454.48
347878.5276,129.564,-173.85,990.335,-315.0,2345.0,-997.5,69.92,-89.68,-454.48
347878.5776,139.69,-178.303,987.773,-437.5,2590.0,-341.25,54.72,-77.52,-448.4
347878.6276,128.71,-181.658,989.603,131.25,3255.0,-533.75,66.88,-82.08,-460.56
347878.6776,128.344,-178.73,991.738,-568.75,2870.0,-1461.25,69.92,-89.68,-460.56
347878.7276,134.566,-182.817,988.2,665.0,3246.25,-1137.5,62.32,-85.12,-460.56
347878.7776,131.638,-173.484,993.873,385.0,2817.5,-481.25,72.96,-82.08,-456.0
347878.8276,130.723,-167.567,994.666,-490.0,3622.5,-883.75,50.16,-76.0,-451.44
347878.8776,131.943,-187.148,988.383,-682.5,3071.25,-927.5,62.32,-80.56,-468.16
347878.9276,127.49,-177.083,992.348,122.5,3097.5,-752.5,62.32,-65.36,-471.2
347878.9776,131.638,-179.584,995.642,-761.25,3167.5,-437.5,50.16,-68.4,-471.2
347879.0276,136.274,-181.963,991.067,875.0,3150.0,-700.0,59.28,-71.44,-460.56
347879.0776,123.586,-175.131,994.117,717.5,3657.5,-1618.75,69.92,-82.08,-460.56
347879.1276,129.93,-175.253,989.603,-936.25,2590.0,-883.75,68.4,-80.56,-469.68
347879.1776,123.403,-189.588,993.019,-157.5,2380.0,-43.75,71.44,-83.6,-448.4
347879.2276,127.002,-177.083,990.457,586.25,2371.25,-980.0,59.28,-79.04,-457.52
347879.2776,134.017,-176.839,988.871,-61.25,2152.5,-463.75,62.32,-80.56,-465.12
347879.3276,133.163,-181.353,988.688,148.75,2441.25,-35.0,62.32,-76.0,-445.36
347879.3776,133.895,-176.168,993.141,-428.75,3010.0,-743.75,63.84,-71.44,-454.48
347879.4276,135.481,-183.122,991.128,288.75,2878.75,-708.75,51.68,-80.56,-462.08
347879.4776,131.577,-177.022,989.664,288.75,3123.75,-280.0,62.32,-85.12,-465.12
347879.5276,130.418,-172.325,990.457,227.5,3920.0,-717.5,63.84,-80.56,-448.4
347879.5776,124.989,-184.037,991.555,-971.25,3001.25,-1085.0,48.64,-69.92,-462.08
347879.6276,127.612,-181.475,988.139,385.0,3220.0,-927.5,66.88,-80.56,-466.64
347879.6776,130.662,-174.643,991.616,43.75,3123.75,-8.75,66.88,-74.48,-462.08
347879.7276,130.235,-181.536,992.714,17.5,2791.25,-542.5,68.4,-82.08,-456.0
347879.7776,130.296,-173.728,990.518,708.75,3762.5,-1487.5,62.32,-66.88,-462.08
347879.8276,124.745,-172.203,991.006,-603.75,2896.25,-1286.25,59.28,-76.0,-442.32
347879.8776,129.503,-181.536,990.823,-621.25,2870.0,-96.25,59.28,-79.04,-452.96
347879.9276,129.015,-185.196,990.945,131.25,2747.5,-218.75,59.28,-77.52,-459.04
347879.9776,130.418,-177.144,990.823,-288.75,2843.75,-1163.75,66.88,-74.48,-456.0
347880.0276,135.237,-182.024,990.884,35.0,3062.5,-358.75,62.32,-89.68,-452.96
347880.0776,130.235,-177.998,991.372,26.25,3062.5,-586.25,60.8,-83.6,-442.32
347880.1276,129.93,-184.708,993.629,-271.25,2616.25,-831.25,60.8,-72.96,-465.12
347880.1776,135.42,-186.538,987.651,656.25,3010.0,-603.75,65.36,-71.44,-472.72
347880.2276,134.627,-177.998,989.359,1146.25,3272.5,-630.0,66.88,-82.08,-466.64
