TimeStamp,ax,ay,az,gx,gy,gz,mx,my,mz
347779.7276,38.857,-412.848,931.592,-2423.75,4716.25,-1225.0,142.88,33.44,-381.52
347779.7776,27.084,-410.896,925.492,-1006.25,2625.0,-2948.75,130.72,31.92,-393.68
347779.8276,67.283,-403.454,934.581,271.25,1960.0,-1146.25,135.28,44.08,-399.76
347779.8776,54.9,-407.48,931.226,-1321.25,4602.5,-1303.75,136.8,33.44,-380.0
347779.9276,52.643,-425.292,927.505,936.25,2922.5,-691.25,124.64,28.88,-383.04
347779.9776,52.704,-419.253,924.272,1855.0,4383.75,-1400.0,121.6,18.24,-393.68
347780.0276,30.134,-363.56,926.285,3858.75,9686.25,-12241.25,135.28,33.44,-390.64
347780.0776,-27.267,-366.488,938.424,1951.25,4252.5,-17307.5,141.36,27.36,-390.64
347780.1276,29.707,-360.876,948.977,-3876.25,1540.0,-11348.75,121.6,27.36,-387.6
347780.1776,72.529,-426.146,918.904,-1496.25,-2091.25,-2843.75,133.76,33.44,-390.64
347780.2276,109.129,-417.24,926.834,857.5,-1671.25,-96.25,129.2,28.88,-376.96
347780.2776,67.832,-413.58,924.577,1076.25,1330.0,2668.75,121.6,31.92,-376.96
347780.3276,62.647,-406.321,926.163,3771.25,4523.75,560.0,120.08,31.92,-387.6
347780.3776,-16.409,-368.379,923.296,3395.0,-2555.0,-2563.75,118.56,19.76,-395.2
347780.4276,83.753,-356.057,942.633,-2537.5,-6168.75,-1522.5,127.68,25.84,-386.08
347780.4776,108.519,-394.487,934.154,-3736.25,-2738.75,113.75,123.12,28.88,-387.6
347780.5276,77.592,-402.417,919.209,183.75,-1198.75,1382.5,129.2,30.4,-393.68
347780.5776,91.988,-388.143,907.131,1225.0,-1330.0,472.5,127.68,25.84,-381.52
347780.6276,97.905,-392.413,915.61,-1890.0,-2633.75,1120.0,110.96,18.24,-369.36
347780.6776,70.089,-424.255,920.368,-5652.5,4200.0,-350.0,110.96,31.92,-384.56
347780.7276,47.275,-449.509,936.594,761.25,-551.25,-3797.5,110.96,27.36,-384.56
347780.7776,58.682,-416.935,946.964,927.5,1120.0,-6623.75,120.08,34.96,-375.44
347780.8276,64.355,-401.685,943.121,227.5,-1776.25,-4077.5,114.0,31.92,-373.92
347780.8776,98.82,-412.177,923.052,-1933.75,-1531.25,1268.75,117.04,33.44,-387.6
347780.9276,122.793,-398.025,930.006,-1566.25,-542.5,-183.75,114.0,27.36,-372.4
347780.9776,111.569,-387.716,917.562,-2003.75,1925.0,-1426.25,94.24,28.88,-355.68
347781.0276,113.582,-397.11,910.486,-5083.75,2415.0,-3657.5,117.04,25.84,-373.92
347781.0776,118.462,-413.885,913.719,-4707.5,2178.75,-3036.25,123.12,33.44,-370.88
347781.1276,104.188,-426.634,922.747,-5661.25,4033.75,-2581.25,112.48,34.96,-367.84
347781.1776,106.628,-439.81,914.207,-3412.5,3001.25,-1706.25,103.36,39.52,-361.76
347781.2276,114.863,-442.372,916.159,-1793.75,2887.5,-490.0,101.84,39.52,-366.32
347781.2777,104.127,-432.368,915.366,411.25,4375.0,-148.75,107.92,31.92,-378.48
347781.3276,95.77,-419.192,911.279,472.5,3517.5,-673.75,115.52,41.04,-357.2
347781.3777,98.881,-415.776,917.501,-1085.0,3412.5,-122.5,110.96,27.36,-364.8
347781.4276,102.968,-429.074,915.366,-1260.0,2695.0,-770.0,106.4,25.84,-381.52
347781.4776,106.262,-426.573,912.56,-1137.5,3421.25,-1050.0,118.56,38.0,-355.68
347781.5276,97.478,-429.562,912.438,-131.25,3115.0,-1470.0,107.92,47.12,-372.4
347781.5776,98.82,-421.388,913.353,-997.5,3368.75,-1855.0,100.32,30.4,-383.04
347781.6276,101.138,-430.355,912.682,78.75,2467.5,-1225.0,112.48,31.92,-384.56
347781.6776,105.469,-416.203,916.342,1032.5,3167.5,-1181.25,98.8,28.88,-370.88
347781.7276,94.916,-422.425,915.976,-315.0,3508.75,-883.75,104.88,36.48,-373.92
347781.7776,99.674,-420.107,910.059,-1846.25,2502.5,-271.25,117.04,44.08,-378.48
347781.8276,99.552,-424.804,912.438,-1741.25,1916.25,-647.5,107.92,30.4,-380.0
347781.8776,99.552,-428.403,917.745,-2397.5,2808.75,-875.0,112.48,24.32,-367.84
347781.9276,99.369,-444.568,914.939,-1618.75,2345.0,-236.25,109.44,28.88,-364.8
347781.9776,99.491,-426.695,907.985,-586.25,2213.75,-778.75,118.56,36.48,-381.52
347782.0276,106.445,-434.015,912.56,621.25,2126.25,-1855.0,114.0,24.32,-370.88
347782.0776,110.288,-426.634,905.24,-595.0,2117.5,-770.0,101.84,33.44,-363.28
347782.1276,111.691,-419.192,913.719,-918.75,3123.75,-2502.5,104.88,34.96,-363.28
347782.1776,105.774,-435.723,914.024,-2712.5,3351.25,-2100.0,98.8,36.48,-357.2
347782.2276,106.445,-446.093,906.826,148.75,2651.25,-2651.25,103.36,38.0,-363.28
347782.2776,101.809,-424.499,910.181,682.5,2563.75,-1977.5,101.84,30.4,-354.16
347782.3276,107.726,-422.913,908.717,-1286.25,2117.5,-376.25,101.84,36.48,-358.72
347782.3776,110.532,-437.431,907.619,-901.25,2817.5,-96.25,118.56,34.96,-372.4
347782.4276,114.07,-437.004,907.314,892.5,3228.75,-1251.25,106.4,24.32,-346.56
347782.4776,101.382,-441.945,913.048,-463.75,3727.5,-1137.5,92.72,31.92,-364.8
347782.5276,104.371,-432.551,910.547,638.75,2791.25,-1111.25,106.4,38.0,-373.92
347782.5776,106.262,-439.749,907.558,-131.25,2546.25,-656.25,101.84,33.44,-369.36
347782.6276,114.375,-433.344,910.12,533.75,3683.75,-1776.25,92.72,27.36,-367.84
347782.6776,102.297,-428.403,914.451,-752.5,3115.0,-1592.5,101.84,38.0,-358.72
347782.7276,105.713,-441.579,906.399,-866.25,3228.75,-1321.25,110.96,25.84,-364.8
347782.7776,127.063,-445.117,903.349,2371.25,3710.0,962.5,115.52,41.04,-363.28
347782.8276,113.643,-419.497,909.754,2642.5,6063.75,2380.0,124.64,36.48,-352.64
347782.8776,94.977,-432.185,911.096,306.25,3465.0,-612.5,109.44,36.48,-375.44
347782.9276,98.942,-423.95,912.682,43.75,3430.0,-2056.25,107.92,36.48,-360.24
347782.9776,100.65,-437.797,908.961,-2257.5,2546.25,-1268.75,100.32,33.44,-373.92
347783.0276,111.874,-438.102,909.815,-96.25,3080.0,-1277.5,86.64,33.44,-366.32
347783.0776,99.003,-441.884,909.083,-1531.25,3718.75,-1058.75,114.0,36.48,-361.76
347783.1276,104.432,-436.15,906.826,-2003.75,3447.5,-1242.5,114.0,34.96,-364.8
347783.1776,100.589,-442.616,911.645,218.75,2870.0,-595.0,107.92,39.52,-363.28
347783.2276,102.236,-434.686,910.486,-2108.75,4305.0,-1496.25,98.8,38.0,-361.76
347783.2776,97.722,-446.398,912.438,-621.25,3570.0,-1540.0,109.44,28.88,-364.8
347783.3276,101.992,-434.015,906.46,-481.25,2782.5,-367.5,110.96,41.04,-366.32
347783.3776,104.371,-436.272,903.776,-210.0,2695.0,-122.5,106.4,39.52,-367.84
347783.4276,101.992,-429.867,905.423,-131.25,2178.75,568.75,110.96,41.04,-361.76
347783.4776,104.188,-440.054,910.608,-2187.5,3237.5,-1303.75,117.04,22.8,-369.36
347783.5276,108.153,-447.374,901.092,-892.5,2966.25,-1067.5,106.4,36.48,-366.32
347783.5776,100.284,-447.923,905.301,-682.5,3701.25,-743.75,106.4,42.56,-370.88
347783.6276,102.602,-440.847,906.277,-595.0,3430.0,-1408.75,123.12,30.4,-355.68
347783.6776,97.173,-445.178,902.434,-743.75,3062.5,-1452.5,106.4,39.52,-357.2
347783.7276,97.844,-443.287,908.229,-936.25,3088.75,-1163.75,104.88,42.56,-355.68
347783.7776,101.321,-449.997,906.643,-770.0,2021.25,-735.0,115.52,47.12,-369.36
347783.8276,102.297,-439.688,904.935,-752.5,1758.75,533.75,91.2,39.52,-363.28
347783.8776,105.469,-448.96,903.654,332.5,1636.25,647.5,109.44,39.52,-360.24
347783.9276,111.63,-443.409,902.007,35.0,2476.25,-595.0,107.92,48.64,-376.96
347783.9776,108.641,-451.827,903.288,70.0,3088.75,-918.75,103.36,33.44,-366.32
347784.0276,103.822,-446.093,902.007,218.75,3123.75,-402.5,107.92,41.04,-357.2
347784.0776,100.772,-443.775,905.057,306.25,2345.0,-665.0,101.84,45.6,-370.88
347784.1276,105.591,-450.79,903.776,778.75,2948.75,-428.75,101.84,36.48,-375.44
347784.1776,106.628,-434.564,903.776,778.75,2800.0,-805.0,112.48,36.48,-360.24
347784.2278,100.345,-434.198,906.948,-586.25,1601.25,-166.25,103.36,42.56,-351.12
347784.2776,100.162,-440.237,909.876,-1916.25,1470.0,350.0,120.08,42.56,-361.76
347784.3277,117.425,-450.973,903.105,-420.0,665.0,-166.25,110.96,25.84,-348.08
347784.3776,119.316,-446.398,900.116,183.75,2493.75,-166.25,101.84,42.56,-351.12
347784.4276,108.092,-441.457,899.384,-26.25,3605.0,131.25,112.48,31.92,-357.2
347784.4776,99.674,-452.986,900.97,-140.0,2388.75,-1750.0,97.28,39.52,-349.6
347784.5276,113.46,-449.204,902.19,70.0,3132.5,-1391.25,104.88,41.04,-346.56
347784.5776,108.519,-446.764,905.362,-498.75,3237.5,-323.75,114.0,41.04,-360.24
347784.6276,105.347,-454.389,903.532,236.25,3438.75,-1225.0,107.92,45.6,-358.72
347784.6776,104.493,-437.736,904.386,131.25,3508.75,-936.25,104.88,36.48,-352.64
347784.7276,104.92,-444.69,903.227,-341.25,2406.25,-1163.75,103.36,36.48,-361.76
347784.7776,111.203,-448.167,904.813,-306.25,2738.75,-551.25,109.44,27.36,-361.76
347784.8276,109.556,-450.485,901.946,-192.5,2826.25,-306.25,112.48,34.96,-352.64
347784.8776,109.251,-445.422,900.177,306.25,2966.25,-778.75,106.4,38.0,-355.68
347784.9276,103.09,-442.738,904.02,52.5,3141.25,-1198.75,114.0,39.52,-372.4
347784.9776,103.395,-450.546,901.397,-717.5,2625.0,-1093.75,104.88,38.0,-351.12
347785.0276,111.508,-446.215,901.336,-236.25,2677.5,-87.5,104.88,45.6,-360.24
347785.0776,117.669,-445.605,904.386,-271.25,3430.0,-1522.5,106.4,34.96,-357.2
347785.1276,103.151,-448.594,908.595,-962.5,3430.0,-2100.0,106.4,39.52,-358.72
347785.1776,109.983,-447.374,900.787,-1260.0,3123.75,-638.75,109.44,30.4,-355.68
347785.2276,107.665,-447.191,902.251,-323.75,2520.0,0.0,121.6,38.0,-363.28
347785.2776,108.885,-447.191,901.153,-367.5,2563.75,-166.25,103.36,41.04,-358.72
347785.3276,108.031,-456.89,899.079,-472.5,2441.25,-665.0,106.4,42.56,-357.2
347785.3776,117.364,-447.679,901.946,253.75,3508.75,-35.0,115.52,39.52,-354.16
347785.4276,101.992,-455.304,905.118,52.5,2388.75,-1216.25,85.12,36.48,-360.24
347785.4776,109.861,-458.354,899.506,350.0,3438.75,-472.5,104.88,39.52,-366.32
347785.5276,103.029,-448.655,901.092,910.0,2887.5,-665.0,109.44,36.48,-367.84
347785.5776,110.654,-446.276,900.604,43.75,2948.75,-1190.0,114.0,28.88,-360.24
347785.6276,109.678,-450.119,899.933,-638.75,3325.0,-612.5,103.36,45.6,-364.8
347785.6776,110.227,-446.276,901.458,-166.25,2721.25,-665.0,109.44,53.2,-343.52
347785.7276,108.702,-452.193,899.262,-630.0,3027.5,-175.0,106.4,36.48,-354.16
347785.7776,108.58,-452.62,906.521,-332.5,2940.0,-490.0,92.72,39.52,-360.24
347785.8276,108.824,-453.657,897.31,-297.5,2642.5,-1128.75,115.52,41.04,-360.24
347785.8776,115.717,-449.753,897.554,-638.75,3412.5,-840.0,123.12,33.44,-355.68
347785.9276,111.691,-448.96,903.471,-245.0,3762.5,-1032.5,95.76,34.96,-352.64
347785.9776,106.018,-453.108,903.593,-1303.75,3123.75,-1408.75,107.92,34.96,-357.2
347786.0276,106.75,-460.916,897.981,665.0,3377.5,-927.5,120.08,36.48,-354.16
347786.0776,108.092,-446.764,898.042,350.0,2528.75,-945.0,107.92,48.64,-357.2
347786.1276,117.364,-444.751,896.883,-621.25,3675.0,-1032.5,109.44,33.44,-378.48
347786.1776,107.665,-455.975,898.469,-236.25,3526.25,-1277.5,118.56,34.96,-361.76
347786.2276,103.029,-448.655,903.105,-341.25,3587.5,-1172.5,112.48,33.44,-361.76
347786.2776,107.909,-462.136,902.19,-140.0,2870.0,-910.0,109.44,47.12,-363.28
347786.3276,106.506,-453.23,899.628,96.25,3255.0,-358.75,97.28,45.6,-364.8
347786.3776,102.114,-449.997,897.981,-201.25,3202.5,-805.0,109.44,36.48,-351.12
347786.4276,106.506,-448.167,897.005,-61.25,2843.75,-822.5,115.52,36.48,-355.68
347786.4776,108.702,-453.901,896.273,-805.0,3123.75,-245.0,112.48,33.44,-361.76
347786.5276,112.179,-447.679,898.652,-1041.25,3202.5,-507.5,107.92,48.64,-360.24
347786.5776,106.018,-456.402,903.593,-323.75,3281.25,-875.0,104.88,31.92,-357.2
347786.6276,103.639,-454.206,898.957,-1111.25,3552.5,-752.5,109.44,42.56,-357.2
347786.6776,102.297,-457.439,896.273,420.0,2511.25,-892.5,101.84,41.04,-363.28
347786.7276,106.018,-453.962,902.068,-376.25,2292.5,350.0,89.68,42.56,-351.12
347786.7776,105.408,-456.951,898.225,-1268.75,2730.0,-805.0,117.04,48.64,-354.16
347786.8276,105.408,-469.09,898.53,1006.25,2896.25,-166.25,92.72,42.56,-357.2
347786.8776,107.665,-452.498,894.26,437.5,2642.5,-183.75,103.36,42.56,-355.68
347786.9276,109.129,-461.953,897.798,385.0,2905.0,-1128.75,123.12,38.0,-361.76
347786.9776,105.713,-454.694,895.846,166.25,2861.25,-665.0,103.36,34.96,-357.2
347787.0276,105.591,-460.916,903.776,673.75,3088.75,-1382.5,118.56,50.16,-367.84
347787.0776,104.92,-464.698,900.299,-280.0,2572.5,-175.0,91.2,39.52,-361.76
347787.1276,102.724,-462.502,896.822,525.0,2572.5,-997.5,112.48,39.52,-349.6
347787.1776,112.85,-465.857,901.153,2187.5,1916.25,-2047.5,115.52,42.56,-358.72
347787.2276,113.46,-445.971,899.384,2362.5,2738.75,-1006.25,100.32,39.52,-357.2
347787.2778,107.726,-439.261,896.639,945.0,2913.75,-612.5,118.56,31.92,-373.92
347787.3276,111.203,-444.568,894.382,-533.75,3176.25,-516.25,120.08,34.96,-349.6
347787.3777,103.822,-445.849,902.068,-1050.0,3220.0,-1023.75,118.56,38.0,-367.84
347787.4276,104.676,-454.145,902.434,-813.75,2843.75,-393.75,101.84,41.04,-363.28
347787.4776,114.253,-453.718,897.127,-708.75,3045.0,183.75,112.48,34.96,-346.56
347787.5276,115.351,-454.511,899.933,787.5,2660.0,-778.75,94.24,28.88,-361.76
347787.5776,110.41,-444.812,901.214,-892.5,3517.5,-568.75,103.36,39.52,-367.84
347787.6276,103.456,-462.075,897.31,-87.5,2957.5,-1128.75,106.4,38.0,-355.68
347787.6776,107.055,-451.949,899.14,455.0,2563.75,43.75,112.48,47.12,-349.6
347787.7276,113.216,-452.803,898.469,-490.0,2931.25,-236.25,101.84,42.56,-367.84
347787.7782,107.055,-459.94,897.859,-131.25,2511.25,-778.75,109.44,44.08,-349.6
347787.8276,108.641,-454.755,897.981,148.75,3850.0,-918.75,115.52,39.52,-355.68
347787.8776,108.336,-452.742,901.092,-525.0,2458.75,-586.25,114.0,39.52,-357.2
347787.9276,109.434,-461.465,899.384,962.5,3263.75,-612.5,97.28,36.48,-360.24
347787.9776,105.164,-451.034,895.541,560.0,2738.75,-1120.0,91.2,34.96,-369.36
347788.0276,108.641,-454.877,896.883,-358.75,2703.75,-525.0,106.4,33.44,-352.64
347788.0776,107.97,-458.842,895.907,-192.5,2896.25,-148.75,103.36,36.48,-352.64
347788.1276,108.946,-456.707,900.543,280.0,2992.5,-857.5,106.4,42.56,-378.48
347788.1776,103.395,-453.291,899.445,-498.75,2878.75,-612.5,110.96,39.52,-355.68
347788.2276,110.654,-461.038,897.615,52.5,2415.0,175.0,101.84,41.04,-351.12
347788.2776,114.741,-447.374,900.97,516.25,2590.0,-533.75,109.44,44.08,-361.76
347788.3276,107.36,-456.646,900.787,-822.5,3570.0,-1828.75,112.48,41.04,-361.76
347788.3776,109.678,-464.637,898.713,927.5,2913.75,-1111.25,117.04,33.44,-357.2
347788.4276,106.018,-447.862,897.005,1286.25,2327.5,-525.0,107.92,38.0,-351.12
347788.4776,113.826,-447.008,896.09,-350.0,2905.0,-743.75,112.48,39.52,-357.2
347788.5276,106.018,-452.01,895.968,-743.75,2765.0,-647.5,107.92,41.04,-361.76
347788.5776,110.166,-453.047,898.713,-1531.25,3246.25,-936.25,104.88,39.52,-351.12
347788.6276,106.994,-460.001,901.763,-1470.0,3132.5,-525.0,101.84,39.52,-366.32
347788.6776,109.617,-467.992,896.761,-35.0,3202.5,-630.0,120.08,39.52,-355.68
347788.7276,102.236,-456.158,900.299,78.75,2887.5,-1076.25,121.6,31.92,-354.16
347788.7776,110.715,-453.474,895.663,420.0,3027.5,-1102.5,89.68,47.12,-357.2
347788.8276,112.911,-452.925,894.199,157.5,3027.5,-971.25,109.44,39.52,-363.28
347788.8776,107.055,-452.315,897.554,-1163.75,3570.0,-1251.25,98.8,31.92,-352.64
347788.9276,101.748,-465.918,898.652,-463.75,3421.25,-1837.5,106.4,41.04,-358.72
347788.9776,110.288,-455.06,893.345,-735.0,3290.0,-306.25,94.24,44.08,-360.24
347789.0276,116.876,-460.123,902.617,-490.0,2703.75,-1102.5,107.92,38.0,-364.8
347789.0776,114.009,-459.818,899.14,-656.25,3482.5,-883.75,109.44,45.6,-354.16
347789.1276,102.48,-463.844,894.321,-455.0,3928.75,-682.5,98.8,41.04,-355.68
347789.1776,75.884,-460.916,898.774,253.75,1688.75,-5731.25,107.92,41.04,-366.32
347789.2276,142.984,-465.613,888.892,-735.0,437.5,-8295.0,101.84,47.12,-346.56
347789.2776,124.379,-460.184,893.162,1522.5,4576.25,1645.0,95.76,34.96,-364.8
347789.3276,106.079,-451.156,902.617,988.75,4375.0,1540.0,106.4,47.12,-363.28
347789.3776,110.593,-471.53,898.408,-358.75,2686.25,-656.25,112.48,33.44,-357.2
347789.4276,116.449,-461.892,894.992,971.25,3193.75,-892.5,94.24,39.52,-355.68
347789.4776,108.458,-459.818,901.214,1085.0,3158.75,-1155.0,101.84,38.0,-348.08
347789.5276,110.105,-452.132,894.931,253.75,2196.25,-1111.25,97.28,51.68,-358.72
347789.5776,112.728,-449.814,895.053,-297.5,2222.5,-463.75,109.44,39.52,-354.16
347789.6276,110.166,-461.282,894.687,-516.25,2100.0,-297.5,100.32,34.96,-355.68
347789.6776,116.51,-456.341,890.905,-315.0,2030.0,288.75,103.36,54.72,-360.24
347789.7276,124.928,-457.256,901.519,-96.25,2791.25,-35.0,107.92,39.52,-357.2
347789.7776,115.046,-470.005,895.968,-533.75,3517.5,-892.5,100.32,38.0,-364.8
347789.8276,114.924,-466.65,896.578,796.25,3272.5,-498.75,103.36,34.96,-369.36
347789.8776,113.887,-464.82,900.665,831.25,2563.75,-420.0,117.04,36.48,-346.56
347789.9276,120.109,-454.511,895.541,953.75,3360.0,-306.25,103.36,39.52,-358.72
347789.9776,112.423,-458.049,894.992,1216.25,2677.5,866.25,100.32,36.48,-354.16
347790.0276,111.142,-451.217,896.517,1172.5,3193.75,621.25,112.48,41.04,-348.08
347790.0776,113.216,-453.169,899.506,393.75,2038.75,96.25,110.96,38.0,-355.68
347790.1276,114.985,-450.546,898.896,1006.25,3710.0,-1890.0,109.44,31.92,-366.32
347790.1776,108.275,-443.714,904.264,-638.75,3255.0,-2668.75,107.92,39.52,-363.28
347790.2276,112.179,-453.169,899.323,-1225.0,3018.75,-1522.5,95.76,36.48,-346.56
347790.2776,112.118,-449.692,898.957,-665.0,2975.0,192.5,104.88,31.92,-360.24
347790.3276,103.273,-463.295,895.541,-1015.0,2537.5,-1155.0,97.28,31.92,-367.84
347790.3776,129.869,-471.164,894.077,-726.25,1050.0,-4576.25,117.04,33.44,-357.2
347790.4277,142.801,-464.698,897.615,262.5,4340.0,-831.25,97.28,30.4,-352.64
347790.4776,103.761,-467.138,898.774,1050.0,3325.0,-341.25,91.2,30.4,-364.8
347790.5285,107.543,-460.977,895.602,1610.0,2073.75,-892.5,104.88,41.04,-361.76
347790.5776,122.305,-451.095,892.735,1251.25,2091.25,901.25,109.44,41.04,-354.16
347790.6276,118.218,-442.25,895.602,-542.5,2878.75,586.25,104.88,44.08,-358.72
347790.6776,122.854,-448.716,893.894,-1085.0,3491.25,-743.75,92.72,45.6,-369.36
347790.7276,113.765,-455.731,896.395,-875.0,2677.5,-857.5,95.76,44.08,-337.44
347790.7776,121.146,-460.367,897.371,-673.75,3062.5,-778.75,91.2,41.04,-351.12
347790.8276,113.887,-463.722,898.835,61.25,3745.0,-1041.25,95.76,36.48,-358.72
347790.8776,109.617,-457.256,894.443,883.75,2852.5,-1391.25,107.92,41.04,-363.28
347790.9276,111.935,-452.742,895.541,-210.0,3053.75,-385.0,115.52,38.0,-348.08
347790.9776,113.399,-460.977,897.066,1216.25,2572.5,-1006.25,97.28,57.76,-363.28
347791.0276,117.974,-452.132,894.809,175.0,2756.25,-218.75,94.24,39.52,-370.88
347791.0776,121.085,-450.729,900.726,647.5,3132.5,0.0,114.0,41.04,-355.68
347791.1276,110.715,-458.11,902.556,-1487.5,3001.25,-1111.25,98.8,38.0,-348.08
347791.1776,114.924,-465.247,895.114,245.0,2730.0,-1408.75,104.88,45.6,-360.24
347791.2276,118.95,-451.461,899.14,507.5,2730.0,-70.0,112.48,44.08,-360.24
347791.2776,119.804,-456.524,896.7,-463.75,2957.5,-376.25,109.44,34.96,-355.68
347791.3276,122.671,-454.267,892.796,236.25,3036.25,-1242.5,101.84,38.0,-361.76
347791.3776,112.423,-454.572,898.164,-140.0,3675.0,-638.75,98.8,38.0,-366.32
347791.4276,114.985,-455.365,894.504,-1793.75,2782.5,376.25,107.92,41.04,-360.24
347791.4776,121.512,-452.132,898.164,183.75,2931.25,-253.75,104.88,44.08,-354.16
347791.5276,112.118,-457.5,893.406,-1198.75,3622.5,-341.25,104.88,44.08,-342.0
347791.5776,114.802,-453.291,894.992,-43.75,2782.5,-971.25,104.88,41.04,-363.28
347791.6276,110.715,-459.086,893.223,-1382.5,3430.0,-586.25,94.24,39.52,-352.64
347791.6776,117.913,-454.694,896.761,70.0,2397.5,-192.5,95.76,41.04,-366.32
347791.7276,120.414,-461.587,897.432,-26.25,2467.5,-866.25,100.32,38.0,-342.0
347791.7776,118.706,-451.827,900.665,-1610.0,3911.25,-621.25,101.84,44.08,-354.16
347791.8276,108.763,-472.994,893.04,-376.25,3150.0,-507.5,89.68,38.0,-354.16
347791.8776,114.558,-458.171,890.844,297.5,2966.25,306.25,103.36,44.08,-358.72
347791.9276,116.876,-458.11,896.456,-857.5,3395.0,-673.75,121.6,47.12,-357.2
347791.9776,113.338,-461.526,893.223,-708.75,3001.25,-411.25,103.36,44.08,-358.72
347792.0276,108.885,-459.391,894.626,-936.25,3298.75,-560.0,101.84,42.56,-343.52
347792.0776,116.144,-465.003,893.772,-988.75,2861.25,-411.25,115.52,31.92,-355.68
347792.1276,114.68,-467.443,894.748,140.0,3447.5,-542.5,112.48,33.44,-361.76
347792.1776,111.264,-452.925,894.321,-560.0,3185.0,-210.0,97.28,31.92,-357.2
347792.2276,109.739,-465.125,888.404,-2038.75,3246.25,1321.25,98.8,38.0,-364.8
347792.2776,104.31,-464.454,891.881,-1155.0,3246.25,87.5,106.4,36.48,-349.6
347792.3276,111.813,-479.216,891.088,-971.25,2502.5,-971.25,101.84,39.52,-360.24
347792.3776,112.179,-471.042,887.062,26.25,3001.25,-726.25,117.04,39.52,-358.72
347792.4276,115.961,-464.759,892.552,-577.5,3176.25,-1216.25,106.4,39.52,-352.64
347792.4776,105.835,-475.312,887.611,1233.75,2458.75,-918.75,103.36,53.2,-343.52
347792.5276,110.898,-467.748,890.844,953.75,2397.5,-778.75,95.76,44.08,-346.56
347792.5776,121.39,-458.537,889.807,-262.5,2563.75,-253.75,92.72,48.64,-352.64
347792.6276,111.63,-474.092,885.293,-595.0,3386.25,-682.5,110.96,42.56,-351.12
347792.6776,119.865,-466.04,895.358,402.5,3237.5,-1067.5,100.32,39.52,-355.68
347792.7276,109.861,-465.552,892.918,-525.0,2738.75,-533.75,103.36,31.92,-352.64
347792.7776,112.972,-478.911,891.82,988.75,3053.75,-568.75,107.92,51.68,-355.68
347792.8276,110.959,-468.663,891.21,280.0,3080.0,-770.0,94.24,41.04,-361.76
347792.8776,112.484,-470.005,887.733,1706.25,3211.25,-1382.5,101.84,36.48,-346.56
347792.9276,112.362,-460.184,891.027,945.0,3412.5,-761.25,104.88,50.16,-366.32
347792.9776,108.702,-458.232,894.382,78.75,3710.0,481.25,103.36,25.84,-340.48
347793.0276,105.591,-468.724,892.003,612.5,2616.25,-498.75,114.0,45.6,-355.68
347793.0776,119.316,-459.757,894.504,-218.75,3500.0,-1163.75,92.72,41.04,-361.76
347793.1276,104.005,-469.639,897.798,-516.25,3193.75,-700.0,101.84,45.6,-370.88
347793.1776,106.445,-462.563,888.404,726.25,1925.0,183.75,120.08,45.6,-352.64
347793.2276,111.752,-453.413,889.563,-201.25,1566.25,3106.25,89.68,47.12,-345.04
347793.2776,113.582,-473.238,895.053,315.0,1522.5,175.0,110.96,47.12,-354.16
347793.3276,117.486,-464.271,891.515,-682.5,3552.5,-428.75,114.0,41.04,-357.2
347793.3776,102.114,-468.053,895.236,-603.75,2555.0,-691.25,97.28,36.48,-349.6
347793.4276,119.438,-472.262,887.672,105.0,2931.25,-1102.5,97.28,48.64,-358.72
347793.4776,94.062,-468.175,891.942,516.25,1601.25,-157.5,103.36,48.64,-340.48
347793.5276,110.776,-459.574,892.125,-796.25,-393.75,1242.5,118.56,38.0,-343.52
347793.5777,122.61,-475.129,892.125,-691.25,1601.25,-525.0,104.88,31.92,-346.56
347793.6276,127.246,-470.737,890.722,-350.0,2975.0,-1330.0,97.28,38.0,-355.68
347793.6777,119.255,-474.092,888.465,201.25,2983.75,-271.25,118.56,41.04,-357.2
347793.7276,116.937,-465.613,890.356,122.5,2738.75,-393.75,100.32,48.64,-346.56
347793.7776,119.072,-466.345,894.443,-358.75,3867.5,-2292.5,103.36,42.56,-354.16
347793.8276,112.911,-473.787,888.77,665.0,3701.25,-1155.0,110.96,38.0,-349.6
347793.8776,109.983,-465.918,885.72,1181.25,3062.5,-358.75,109.44,48.64,-342.0
347793.9276,123.037,-458.171,889.38,752.5,3368.75,-700.0,98.8,27.36,-355.68
347793.9776,115.229,-460.489,888.526,-463.75,3097.5,-367.5,95.76,44.08,-354.16
347794.0276,114.07,-466.955,892.613,-1067.5,3535.0,-1680.0,100.32,41.04,-358.72
347794.0776,129.015,-470.249,893.955,-87.5,3841.25,-1172.5,112.48,39.52,-363.28
347794.1276,116.937,-472.994,890.722,-621.25,5180.0,-2476.25,101.84,47.12,-348.08
347794.1776,110.959,-464.454,891.149,166.25,4471.25,-1583.75,98.8,39.52,-352.64
347794.2276,100.589,-467.809,890.905,577.5,3561.25,-113.75,106.4,54.72,-355.68
347794.2776,109.8,-470.615,893.955,-586.25,2563.75,-822.5,107.92,30.4,-354.16
347794.3276,113.46,-469.822,893.162,358.75,2922.5,-953.75,109.44,34.96,-363.28
347794.3776,114.68,-467.565,891.576,656.25,2450.0,-656.25,101.84,39.52,-358.72
347794.4276,122.305,-463.478,890.295,455.0,2948.75,8.75,118.56,39.52,-358.72
347794.4776,114.009,-465.247,896.639,525.0,3132.5,-1251.25,106.4,39.52,-345.04
347794.5276,108.641,-471.042,890.661,157.5,3788.75,-1137.5,91.2,36.48,-348.08
347794.5776,105.469,-459.269,891.576,988.75,2537.5,-551.25,98.8,39.52,-376.96
347794.6276,119.072,-461.221,892.491,-498.75,2852.5,-393.75,98.8,42.56,-351.12
347794.6776,117.608,-464.332,892.186,-665.0,3211.25,-962.5,104.88,31.92,-352.64
347794.7276,108.275,-465.918,895.663,-638.75,3237.5,-813.75,104.88,48.64,-361.76
347794.7776,117.364,-478.057,893.772,-402.5,2213.75,-1023.75,115.52,45.6,-349.6
347794.8276,119.255,-469.944,892.003,813.75,3141.25,-1006.25,112.48,39.52,-355.68
347794.8776,122.488,-461.587,894.565,-542.5,3640.0,-2721.25,92.72,54.72,-358.72
347794.9276,112.423,-466.955,891.576,271.25,4401.25,-2983.75,114.0,38.0,-354.16
347794.9776,111.752,-466.223,889.746,140.0,4016.25,-813.75,117.04,38.0,-346.56
347795.0276,104.31,-466.162,896.517,-420.0,2940.0,-1417.5,101.84,45.6,-361.76
347795.0776,109.007,-472.994,893.772,192.5,2476.25,-542.5,94.24,38.0,-358.72
347795.1276,114.07,-459.147,889.075,288.75,2030.0,848.75,97.28,42.56,-345.04
347795.1776,125.05,-467.138,892.308,673.75,2415.0,-481.25,98.8,42.56,-345.04
347795.2276,116.632,-457.927,894.443,-673.75,3167.5,-717.5,106.4,44.08,-345.04
347795.2776,109.678,-478.606,889.136,148.75,3167.5,-1373.75,106.4,47.12,-358.72
347795.3276,114.07,-463.051,887.916,533.75,2721.25,-481.25,103.36,45.6,-354.16
347795.3776,116.144,-467.443,889.807,-227.5,3298.75,-1006.25,104.88,41.04,-363.28
347795.4276,117.608,-468.358,889.99,-297.5,3596.25,-787.5,98.8,50.16,-364.8
347795.4776,108.336,-468.663,892.125,87.5,3193.75,-743.75,104.88,45.6,-346.56
347795.5276,122.366,-475.007,891.82,437.5,3456.25,-647.5,110.96,36.48,-349.6
347795.5776,119.743,-464.82,888.77,997.5,4655.0,-315.0,100.32,50.16,-364.8
347795.6276,104.737,-469.212,895.541,43.75,3465.0,-1417.5,107.92,47.12,-369.36
347795.6776,108.824,-467.382,890.905,420.0,2808.75,-2336.25,107.92,39.52,-355.68
347795.7276,115.412,-462.685,892.552,245.0,3438.75,78.75,97.28,50.16,-346.56
347795.7776,105.652,-468.724,895.968,-875.0,2817.5,-1111.25,112.48,38.0,-360.24
347795.8276,113.216,-471.164,891.515,-61.25,2546.25,-892.5,112.48,54.72,-357.2
347795.8776,108.58,-470.371,889.197,-87.5,2730.0,-638.75,101.84,48.64,-355.68
347795.9276,120.963,-460.855,891.515,385.0,2843.75,-1207.5,94.24,53.2,-366.32
347795.9776,114.802,-471.225,892.857,-1181.25,3316.25,-1347.5,107.92,39.52,-360.24
347796.0276,109.068,-470.005,888.221,752.5,3097.5,-673.75,109.44,44.08,-345.04
347796.0776,111.203,-460.184,891.332,52.5,3010.0,-367.5,110.96,44.08,-348.08
347796.1276,104.493,-472.75,889.929,-271.25,3150.0,-1137.5,107.92,41.04,-367.84
347796.1776,115.29,-472.567,892.857,131.25,2843.75,-446.25,107.92,39.52,-363.28
347796.2276,105.957,-463.6,897.188,-367.5,2301.25,-472.5,117.04,41.04,-334.4
347796.2776,120.17,-474.397,887.489,288.75,3106.25,-840.0,106.4,38.0,-360.24
347796.3276,114.009,-470.615,892.491,1128.75,3141.25,-420.0,106.4,39.52,-349.6
347796.3776,111.081,-463.661,889.624,-175.0,3360.0,-1111.25,110.96,38.0,-352.64
347796.4276,114.802,-467.443,892.186,-411.25,3298.75,-1347.5,104.88,39.52,-352.64
347796.4776,114.192,-468.236,889.136,-35.0,3543.75,-708.75,101.84,42.56,-367.84
347796.5276,108.885,-472.018,892.369,166.25,2563.75,-577.5,107.92,41.04,-363.28
347796.5776,117.913,-454.694,890.417,1015.0,2730.0,-227.5,124.64,41.04,-358.72
347796.6278,114.558,-462.746,891.698,-122.5,2012.5,-105.0,103.36,34.96,-345.04
347796.6776,116.815,-465.735,896.334,-1898.75,3596.25,-1408.75,104.88,34.96,-366.32
347796.7277,112.301,-481.046,884.927,183.75,2563.75,-1505.0,115.52,42.56,-352.64
347796.7776,114.375,-464.881,889.258,341.25,3167.5,113.75,97.28,41.04,-345.04
347796.8277,113.277,-465.857,889.685,-542.5,3132.5,-787.5,103.36,44.08,-355.68
347796.8776,109.251,-470.066,888.282,-595.0,3167.5,201.25,107.92,53.2,-367.84
347796.9276,105.042,-475.129,895.236,-262.5,3605.0,-735.0,112.48,45.6,-340.48
347796.9776,117.608,-466.101,891.332,-393.75,2493.75,-280.0,106.4,42.56,-349.6
347797.0276,106.689,-480.192,892.308,831.25,2817.5,-586.25,110.96,51.68,-345.04
347797.0776,118.767,-457.866,888.404,-192.5,2843.75,-568.75,107.92,45.6,-342.0
347797.1276,111.081,-467.138,888.648,-26.25,3010.0,-761.25,104.88,31.92,-351.12
347797.1776,114.68,-467.809,889.075,-61.25,2712.5,-113.75,95.76,44.08,-360.24
347797.2276,107.116,-477.081,895.236,-140.0,3316.25,-962.5,114.0,48.64,-349.6
347797.2776,110.288,-470.92,892.308,113.75,3018.75,-1373.75,103.36,31.92,-342.0
347797.3276,111.325,-475.617,891.454,962.5,1697.5,-393.75,101.84,42.56,-366.32
347797.3776,120.597,-459.757,890.722,245.0,2712.5,-122.5,110.96,44.08,-354.16
347797.4276,114.131,-462.563,897.432,-218.75,3377.5,-1260.0,98.8,38.0,-351.12
347797.4776,118.462,-465.064,888.77,-1225.0,3456.25,-568.75,109.44,39.52,-335.92
347797.5276,106.323,-464.271,886.513,-805.0,3325.0,1242.5,110.96,45.6,-352.64
347797.5776,108.946,-477.813,893.65,-875.0,1820.0,-918.75,114.0,45.6,-354.16
347797.6276,115.9,-481.534,886.696,-1470.0,2992.5,-1715.0,112.48,42.56,-352.64
347797.6776,113.643,-484.828,886.757,376.25,3316.25,-1041.25,104.88,53.2,-342.0
347797.7276,108.702,-475.617,892.43,192.5,2660.0,-665.0,103.36,47.12,-366.32
347797.7776,117.181,-471.652,888.587,892.5,2738.75,-1426.25,98.8,44.08,-332.88
347797.8276,111.02,-464.759,888.709,498.75,3465.0,-1487.5,109.44,42.56,-354.16
347797.8776,107.543,-469.334,890.844,-148.75,2651.25,-673.75,109.44,53.2,-363.28
347797.9276,116.449,-464.393,887.611,603.75,2266.25,122.5,109.44,39.52,-354.16
347797.9776,113.948,-468.907,889.868,-35.0,2843.75,-673.75,107.92,39.52,-346.56
347798.0276,112.911,-470.615,888.282,-472.5,3193.75,-1076.25,98.8,51.68,-354.16
347798.0776,114.619,-465.552,887.184,-288.75,3176.25,-463.75,97.28,41.04,-363.28
347798.1276,109.129,-479.826,889.197,43.75,2581.25,-708.75,100.32,48.64,-360.24
347798.1776,123.403,-470.798,893.772,665.0,3263.75,-1408.75,107.92,45.6,-345.04
347798.2276,110.349,-475.739,887.367,-271.25,2913.75,-1032.5,103.36,45.6,-354.16
347798.2776,109.19,-475.129,885.476,796.25,2861.25,-446.25,118.56,54.72,-352.64
347798.3276,118.584,-461.526,888.404,-280.0,2616.25,-61.25,97.28,39.52,-357.2
347798.3776,117.486,-474.641,889.868,-52.5,3211.25,-1102.5,103.36,41.04,-354.16
347798.4276,120.536,-467.504,889.319,-402.5,3797.5,-1347.5,110.96,42.56,-355.68
347798.4776,104.188,-474.336,893.345,-192.5,3036.25,-936.25,101.84,48.64,-340.48
347798.5276,116.693,-472.201,890.844,288.75,2546.25,-805.0,104.88,44.08,-340.48
347798.5776,110.837,-472.567,891.271,490.0,3150.0,-323.75,101.84,50.16,-367.84
347798.6276,111.569,-464.576,889.502,96.25,2467.5,-1172.5,88.16,38.0,-360.24
347798.6776,114.314,-473.97,888.526,-568.75,3097.5,-96.25,117.04,45.6,-345.04
347798.7276,114.619,-470.615,894.077,-367.5,3237.5,-883.75,100.32,50.16,-348.08
347798.7776,112.789,-466.955,890.356,-560.0,3613.75,-778.75,98.8,42.56,-352.64
347798.8276,105.53,-470.92,882.243,-1662.5,4576.25,577.5,100.32,41.04,-351.12
347798.8776,101.321,-480.497,893.467,-288.75,2248.75,-148.75,98.8,44.08,-349.6
347798.9276,119.56,-479.948,890.112,-367.5,2458.75,-1566.25,101.84,39.52,-351.12
347798.9776,107.787,-485.743,891.332,-901.25,3395.0,-1076.25,114.0,42.56,-346.56
347799.0276,104.615,-485.865,886.757,1461.25,2476.25,-1058.75,123.12,41.04,-340.48
347799.0776,111.752,-469.273,888.465,883.75,2590.0,-227.5,101.84,44.08,-346.56
347799.1276,116.632,-466.223,887.794,315.0,2957.5,-1067.5,110.96,34.96,-358.72
347799.1776,113.46,-477.752,887.062,17.5,2852.5,-1233.75,114.0,41.04,-343.52
347799.2276,111.203,-464.027,893.772,35.0,3193.75,-157.5,95.76,39.52,-340.48
347799.2776,113.033,-482.144,889.136,-201.25,2546.25,-1207.5,106.4,44.08,-357.2
347799.3276,117.669,-461.77,885.171,682.5,3780.0,-796.25,110.96,41.04,-354.16
347799.3776,105.591,-464.942,889.319,122.5,3648.75,-717.5,112.48,31.92,-354.16
347799.4276,107.848,-473.787,888.343,-455.0,2520.0,-1155.0,94.24,47.12,-366.32
347799.4776,114.863,-477.325,887.55,-245.0,3071.25,148.75,112.48,44.08,-352.64
347799.5276,112.789,-473.238,890.417,-245.0,2800.0,-647.5,94.24,34.96,-343.52
347799.5776,110.288,-476.105,889.014,148.75,2808.75,-210.0,107.92,44.08,-351.12
347799.6276,113.521,-468.48,885.537,306.25,2581.25,-297.5,104.88,47.12,-354.16
347799.6778,120.292,-477.02,893.162,192.5,2537.5,-857.5,110.96,36.48,-345.04
347799.7276,112.545,-467.016,893.101,-1041.25,3115.0,-805.0,98.8,42.56,-342.0
347799.7777,111.691,-479.033,884.5,-376.25,2975.0,-1198.75,86.64,59.28,-352.64
347799.8276,114.192,-470.493,880.901,-122.5,3578.75,778.75,112.48,47.12,-337.44
347799.8777,113.643,-469.761,887.916,420.0,3395.0,113.75,104.88,42.56,-348.08
347799.9276,116.083,-475.617,891.759,-140.0,2616.25,-2196.25,104.88,47.12,-357.2
347799.9776,111.081,-468.541,888.831,-218.75,3902.5,-402.5,106.4,48.64,-354.16
347800.0276,108.336,-474.214,892.247,-96.25,2170.0,-770.0,98.8,48.64,-337.44
347800.0776,116.266,-468.907,886.879,323.75,3272.5,288.75,101.84,51.68,-360.24
347800.1276,113.155,-466.284,888.831,-1496.25,3745.0,157.5,107.92,47.12,-361.76
347800.1776,109.129,-483.791,887.916,87.5,3508.75,-1583.75,117.04,44.08,-342.0
347800.2276,109.068,-477.203,887.062,26.25,3543.75,-1575.0,98.8,36.48,-355.68
347800.2776,105.469,-477.569,888.282,-367.5,3762.5,-1417.5,92.72,60.8,-349.6
347800.3276,105.164,-476.898,888.709,472.5,2852.5,-105.0,114.0,41.04,-345.04
347800.3776,113.46,-464.393,887.977,-175.0,2800.0,-586.25,109.44,47.12,-342.0
347800.4276,131.211,-473.116,890.478,-761.25,4366.25,-1452.5,106.4,42.56,-361.76
347800.4776,110.41,-476.593,890.661,-516.25,5328.75,-1540.0,110.96,54.72,-345.04
347800.5276,91.988,-472.75,889.38,586.25,5048.75,-490.0,103.36,42.56,-342.0
347800.5776,102.236,-474.092,888.465,-1181.25,3123.75,-2205.0,101.84,41.04,-345.04
347800.6276,111.752,-477.813,887.062,-831.25,3176.25,-1566.25,98.8,59.28,-366.32
347800.6776,110.776,-483.913,883.28,-1435.0,3202.5,-2038.75,120.08,33.44,-349.6
347800.7276,109.495,-477.691,888.526,428.75,4016.25,-1680.0,100.32,51.68,-358.72
347800.7776,103.212,-480.314,890.295,245.0,3281.25,-770.0,104.88,44.08,-335.92
347800.8276,102.907,-475.922,886.208,-175.0,3211.25,-647.5,123.12,56.24,-367.84
347800.8776,104.31,-470.92,891.027,402.5,2686.25,-271.25,103.36,41.04,-354.16
347800.9276,104.92,-479.277,888.587,-350.0,2948.75,-402.5,110.96,44.08,-355.68
347800.9776,105.164,-474.885,881.694,-227.5,2800.0,-805.0,121.6,47.12,-345.04
347801.0276,108.275,-477.935,884.317,-306.25,3080.0,-1093.75,101.84,41.04,-337.44
347801.0776,109.129,-468.419,888.404,481.25,3193.75,-953.75,92.72,41.04,-364.8
347801.1276,99.735,-472.079,887.977,-1732.5,2870.0,-43.75,97.28,33.44,-357.2
347801.1776,110.288,-476.715,891.698,-726.25,2423.75,-218.75,124.64,42.56,-351.12
347801.2276,110.471,-486.414,887.55,-761.25,3106.25,-586.25,103.36,41.04,-349.6
347801.2776,105.286,-480.741,884.744,428.75,2213.75,-516.25,101.84,53.2,-364.8
347801.3276,112.423,-477.813,881.877,-17.5,2213.75,140.0,109.44,41.04,-361.76
347801.3776,108.092,-478.911,882.853,358.75,3027.5,-595.0,107.92,51.68,-351.12
347801.4276,103.334,-475.922,888.709,35.0,3788.75,-1452.5,97.28,48.64,-357.2
347801.4776,102.114,-477.935,889.502,96.25,2240.0,-953.75,98.8,42.56,-364.8
347801.5276,110.837,-476.654,889.136,-52.5,3071.25,-1207.5,110.96,38.0,-352.64
347801.5776,105.042,-478.423,887.306,227.5,2633.75,-271.25,97.28,41.04,-355.68
347801.6276,109.19,-471.835,884.744,437.5,2686.25,-1006.25,110.96,48.64,-358.72
347801.6776,108.458,-486.353,885.171,-393.75,2800.0,-551.25,100.32,50.16,-361.76
347801.7276,108.702,-479.765,888.221,770.0,3325.0,-857.5,100.32,42.56,-355.68
347801.7776,101.626,-484.035,887.367,323.75,2476.25,-1330.0,106.4,44.08,-355.68
347801.8276,107.238,-476.044,882.975,673.75,2598.75,-166.25,104.88,47.12,-334.4
347801.8776,112.911,-468.114,889.685,595.0,2983.75,-752.5,118.56,39.52,-343.52
347801.9276,103.944,-487.207,882.365,-472.5,2581.25,245.0,104.88,41.04,-360.24
347801.9776,108.153,-475.129,884.622,577.5,2642.5,2231.25,104.88,33.44,-357.2
347802.0276,109.007,-476.715,887.733,691.25,1986.25,-402.5,115.52,38.0,-338.96
347802.0776,116.449,-477.264,881.938,-813.75,3333.75,-2266.25,98.8,33.44,-343.52
347802.1276,106.689,-476.898,886.635,700.0,3360.0,-306.25,101.84,36.48,-346.56
347802.1776,111.996,-478.301,892.125,-743.75,2485.0,-1023.75,115.52,47.12,-357.2
347802.2276,120.17,-483.608,883.707,-306.25,4348.75,-770.0,115.52,39.52,-349.6
347802.2776,102.968,-474.458,889.197,1303.75,3771.25,-857.5,101.84,42.56,-346.56
347802.3276,97.783,-474.336,889.624,-157.5,3088.75,-1452.5,109.44,47.12,-361.76
347802.3776,106.933,-480.314,885.659,-280.0,2765.0,-1330.0,117.04,41.04,-354.16
347802.4276,104.127,-477.508,887.306,87.5,3018.75,-726.25,98.8,41.04,-348.08
347802.4776,100.833,-477.874,887.428,-175.0,2493.75,-1303.75,107.92,42.56,-355.68
347802.5276,110.349,-475.617,882.67,551.25,2677.5,201.25,106.4,45.6,-342.0
347802.5776,114.558,-469.761,885.598,595.0,2703.75,-210.0,112.48,44.08,-346.56
347802.6276,106.262,-482.571,889.868,-1636.25,3193.75,-1260.0,106.4,60.8,-354.16
347802.6776,105.957,-486.536,885.293,122.5,3158.75,-997.5,98.8,50.16,-366.32
347802.7277,105.713,-472.933,886.452,411.25,2152.5,-26.25,120.08,41.04,-343.52
347802.7776,115.961,-469.639,882.243,-910.0,3176.25,-962.5,104.88,42.56,-331.36
347802.8277,110.105,-474.885,886.208,-1015.0,3272.5,-1601.25,110.96,41.04,-358.72
347802.8776,102.968,-480.558,888.038,-1137.5,3648.75,-682.5,104.88,45.6,-361.76
347802.9276,103.395,-489.037,889.075,-315.0,2555.0,-962.5,95.76,42.56,-358.72
347802.9776,113.338,-483.73,887.794,1225.0,2887.5,-997.5,107.92,39.52,-354.16
347803.0276,103.822,-470.188,884.561,271.25,3342.5,-752.5,100.32,60.8,-342.0
347803.0776,103.212,-473.36,885.049,210.0,2353.75,-796.25,101.84,45.6,-354.16
347803.1276,115.717,-452.681,885.11,-2563.75,3325.0,-26.25,107.92,48.64,-351.12
347803.1776,99.735,-495.381,887.062,-2485.0,3246.25,-1767.5,112.48,44.08,-354.16
347803.2276,108.58,-494.771,889.38,376.25,2143.75,-1128.75,106.4,48.64,-343.52
347803.2776,112.606,-482.815,886.269,1540.0,2432.5,-175.0,76.0,41.04,-351.12
347803.3276,111.935,-474.885,885.72,892.5,3753.75,-367.5,104.88,51.68,-355.68
347803.3776,100.711,-479.216,885.293,157.5,2712.5,-1890.0,104.88,53.2,-348.08
347803.4276,109.495,-476.654,879.986,700.0,2686.25,-227.5,100.32,50.16,-346.56
347803.4776,110.654,-476.105,886.452,-612.5,2861.25,376.25,104.88,42.56,-348.08
347803.5276,110.288,-484.218,883.707,-463.75,3018.75,-1181.25,103.36,39.52,-349.6
347803.5776,111.813,-478.362,887.428,271.25,3797.5,-883.75,109.44,50.16,-355.68
347803.6276,102.053,-483.608,888.892,-157.5,2310.0,-700.0,94.24,47.12,-349.6
347803.6776,111.447,-483.364,884.927,297.5,2607.5,-918.75,112.48,48.64,-354.16
347803.7276,107.543,-476.105,887.916,971.25,3167.5,-656.25,103.36,42.56,-346.56
347803.7776,106.445,-473.177,888.831,43.75,3080.0,-761.25,98.8,33.44,-342.0
347803.8276,109.8,-475.129,885.842,192.5,2773.75,-227.5,100.32,53.2,-343.52
347803.8776,107.421,-480.192,889.929,-971.25,3141.25,-831.25,100.32,41.04,-360.24
347803.9276,102.48,-486.719,886.879,-157.5,2800.0,-875.0,117.04,48.64,-342.0
347803.9776,110.41,-470.432,887.062,-218.75,2896.25,87.5,101.84,38.0,-345.04
347804.0276,106.201,-482.327,885.964,428.75,2126.25,-472.5,100.32,31.92,-363.28
347804.0776,107.665,-476.105,891.21,-1225.0,3701.25,-647.5,100.32,47.12,-357.2
347804.1276,107.97,-484.584,881.694,743.75,2800.0,-988.75,103.36,50.16,-351.12
347804.1776,105.835,-475.007,884.927,910.0,2695.0,402.5,120.08,38.0,-355.68
347804.2276,110.166,-475.19,883.524,-533.75,2983.75,-1111.25,109.44,41.04,-349.6
347804.2776,107.421,-482.937,884.073,-770.0,2966.25,-988.75,121.6,42.56,-358.72
347804.3276,104.615,-471.835,889.075,-26.25,3561.25,-350.0,106.4,36.48,-345.04
347804.3776,113.704,-482.632,887.306,-595.0,3062.5,-796.25,101.84,45.6,-343.52
347804.4276,110.715,-475.617,886.452,332.5,3526.25,-910.0,115.52,47.12,-357.2
347804.4776,100.528,-479.155,889.502,-350.0,3263.75,-1303.75,100.32,41.04,-355.68
347804.5276,105.835,-477.386,886.696,-271.25,2861.25,-1128.75,104.88,45.6,-355.68
347804.5776,110.898,-481.534,888.709,-822.5,3263.75,-455.0,107.92,50.16,-343.52
347804.6276,106.262,-487.329,885.659,-358.75,3132.5,-1461.25,109.44,33.44,-351.12
347804.6776,103.09,-483.73,887.306,770.0,2747.5,-2642.5,92.72,57.76,-348.08
347804.7276,107.604,-476.349,881.206,402.5,3946.25,-1102.5,98.8,54.72,-357.2
347804.7776,105.347,-470.676,889.014,245.0,2695.0,-892.5,104.88,54.72,-343.52
347804.8276,105.957,-486.475,886.818,-822.5,3815.0,-918.75,106.4,42.56,-334.4
347804.8776,104.127,-476.227,884.927,700.0,2975.0,-455.0,100.32,34.96,-361.76
347804.9276,105.896,-478.911,887.794,411.25,2213.75,560.0,114.0,39.52,-357.2
347804.9776,113.826,-479.765,883.707,-918.75,3657.5,-805.0,106.4,36.48,-346.56
347805.0276,110.044,-487.451,880.413,-43.75,3132.5,-1260.0,101.84,56.24,-346.56
347805.0776,100.101,-472.445,890.722,-446.25,3535.0,-918.75,107.92,41.04,-346.56
347805.1276,106.262,-488.854,886.513,411.25,2598.75,-393.75,107.92,45.6,-345.04
347805.1776,111.081,-477.325,886.696,297.5,3211.25,-1146.25,110.96,45.6,-340.48
347805.2276,102.968,-482.022,885.598,761.25,2660.0,-525.0,109.44,59.28,-348.08
347805.2776,109.19,-472.872,882.06,568.75,2695.0,-385.0,94.24,53.2,-349.6
347805.3276,109.19,-486.353,882.609,-43.75,2625.0,-945.0,110.96,42.56,-343.52
347805.3776,110.593,-476.593,886.513,52.5,2983.75,-1076.25,86.64,42.56,-355.68
347805.4276,108.641,-483.974,885.964,306.25,2502.5,-656.25,112.48,41.04,-361.76
347805.4776,103.761,-478.24,881.877,306.25,2476.25,-26.25,109.44,47.12,-345.04
347805.5276,118.157,-473.421,888.831,227.5,2975.0,-866.25,109.44,53.2,-354.16
347805.5776,106.567,-487.878,884.439,-148.75,3298.75,-761.25,100.32,48.64,-354.16
347805.6276,104.615,-481.046,885.049,831.25,2975.0,-288.75,103.36,39.52,-366.32
347805.6776,109.556,-479.826,883.89,577.5,2511.25,-455.0,98.8,34.96,-345.04
347805.7276,107.177,-474.824,884.561,175.0,3517.5,-857.5,103.36,48.64,-355.68
347805.7777,106.445,-481.534,885.171,420.0,2983.75,-630.0,101.84,41.04,-355.68
347805.8276,107.177,-465.979,890.112,630.0,2415.0,-603.75,112.48,53.2,-351.12
347805.8778,109.068,-478.911,884.927,122.5,2721.25,-1207.5,124.64,36.48,-343.52
347805.9276,108.275,-477.691,888.465,1198.75,2625.0,-455.0,104.88,47.12,-357.2
347805.9776,106.323,-471.957,887.977,-551.25,2826.25,-481.25,103.36,54.72,-357.2
347806.0276,105.957,-473.848,884.622,-490.0,2520.0,-901.25,101.84,36.48,-331.36
347806.0776,110.959,-473.848,884.5,-446.25,3193.75,-586.25,106.4,28.88,-342.0
347806.1276,106.079,-479.338,886.147,-1225.0,2966.25,-1067.5,95.76,53.2,-354.16
347806.1776,109.068,-480.253,886.818,-105.0,2467.5,-875.0,110.96,57.76,-348.08
347806.2276,109.861,-477.142,883.402,-236.25,2931.25,113.75,104.88,41.04,-346.56
347806.2776,115.961,-478.24,888.709,840.0,3377.5,-813.75,89.68,39.52,-351.12
347806.3276,102.358,-481.168,886.086,-1128.75,3036.25,-875.0,112.48,50.16,-343.52
347806.3776,107.36,-489.22,886.147,603.75,3001.25,-551.25,107.92,42.56,-352.64
347806.4276,112.85,-465.369,884.134,-665.0,2677.5,201.25,118.56,48.64,-351.12
347806.4776,106.323,-483.547,885.842,-1041.25,3237.5,-1347.5,106.4,48.64,-357.2
347806.5276,109.373,-485.56,883.89,-26.25,3106.25,-1181.25,103.36,53.2,-349.6
347806.5776,104.432,-477.996,891.454,-385.0,2992.5,-796.25,124.64,50.16,-343.52
347806.6276,107.909,-485.194,887.245,-385.0,2572.5,-700.0,115.52,45.6,-348.08
347806.6776,107.787,-480.192,885.232,341.25,3605.0,-682.5,91.2,51.68,-366.32
347806.7276,106.567,-474.458,883.707,-332.5,2773.75,-586.25,98.8,47.12,-345.04
347806.7776,109.678,-479.338,883.402,-402.5,2633.75,52.5,123.12,50.16,-345.04
347806.8276,105.164,-488.244,882.853,122.5,2913.75,-805.0,107.92,47.12,-351.12
347806.8776,110.349,-480.009,888.282,-533.75,3228.75,-936.25,110.96,24.32,-349.6
347806.9276,103.761,-486.719,885.659,796.25,2213.75,-411.25,118.56,42.56,-348.08
347806.9776,109.983,-474.702,881.328,297.5,2703.75,-113.75,112.48,53.2,-345.04
347807.0276,111.447,-473.543,890.478,-385.0,3692.5,-953.75,104.88,48.64,-352.64
347807.0776,107.421,-488.122,885.72,-971.25,2835.0,-1102.5,115.52,45.6,-357.2
347807.1276,104.737,-486.475,883.707,1093.75,2922.5,-227.5,112.48,41.04,-337.44
347807.1776,111.508,-475.8,882.121,-367.5,2835.0,-367.5,107.92,39.52,-351.12
347807.2276,107.726,-481.839,883.524,-315.0,3473.75,-1303.75,121.6,38.0,-343.52
347807.2776,108.092,-478.972,886.025,-437.5,3088.75,-638.75,109.44,41.04,-337.44
347807.3276,105.835,-482.876,887.001,-1321.25,2826.25,-586.25,100.32,50.16,-332.88
347807.3776,105.103,-495.503,884.805,-350.0,2677.5,-481.25,112.48,44.08,-366.32
347807.4276,109.007,-477.02,886.33,568.75,3150.0,-866.25,110.96,45.6,-342.0
347807.4776,105.53,-477.081,885.72,105.0,3115.0,-560.0,101.84,39.52,-348.08
347807.5276,105.835,-480.863,883.707,-481.25,2660.0,-805.0,98.8,45.6,-354.16
347807.5776,106.933,-485.316,884.683,-673.75,3333.75,-595.0,85.12,48.64,-349.6
347807.6276,108.519,-485.255,884.378,-393.75,3062.5,-717.5,107.92,44.08,-351.12
347807.6776,111.203,-480.253,887.55,78.75,2572.5,-708.75,104.88,44.08,-351.12
347807.7276,112.057,-482.205,879.62,-402.5,3263.75,-183.75,104.88,42.56,-357.2
347807.7776,108.641,-479.582,888.404,-481.25,3438.75,-1338.75,121.6,41.04,-349.6
347807.8276,105.957,-491.05,879.925,-901.25,3473.75,-857.5,101.84,50.16,-338.96
347807.8776,101.077,-484.401,880.962,796.25,3036.25,122.5,95.76,34.96,-370.88
347807.9276,108.519,-481.412,884.256,-778.75,3097.5,-962.5,120.08,39.52,-360.24
347807.9776,103.761,-489.22,882.06,-1015.0,3517.5,-1233.75,114.0,51.68,-355.68
347808.0276,108.275,-482.51,883.829,70.0,3718.75,-560.0,98.8,39.52,-358.72
347808.0776,104.737,-491.172,887.428,-175.0,2703.75,-927.5,92.72,45.6,-357.2
347808.1276,109.373,-487.207,886.025,857.5,3272.5,-778.75,106.4,30.4,-331.36
347808.1776,102.236,-479.948,885.659,166.25,3053.75,-323.75,104.88,38.0,-343.52
347808.2276,104.859,-483.181,880.657,218.75,3185.0,-1295.0,107.92,57.76,-348.08
347808.2776,105.713,-478.484,882.243,-595.0,3465.0,-385.0,118.56,47.12,-360.24
347808.3276,97.966,-486.719,883.036,-700.0,3106.25,-866.25,97.28,34.96,-340.48
347808.3776,108.763,-487.573,884.134,-280.0,2887.5,-1260.0,104.88,44.08,-351.12
347808.4276,97.966,-490.44,880.779,-498.75,3342.5,-358.75,112.48,39.52,-349.6
347808.4776,106.933,-482.144,888.282,647.5,1741.25,-665.0,112.48,51.68,-343.52
347808.5276,105.164,-487.939,884.195,-1085.0,3482.5,-840.0,95.76,44.08,-349.6
347808.5776,103.822,-494.71,879.62,840.0,2432.5,-708.75,106.4,33.44,-346.56
347808.6276,109.556,-479.216,879.498,927.5,2275.0,-376.25,107.92,47.12,-345.04
347808.6776,108.336,-482.998,880.23,-630.0,3010.0,-892.5,98.8,33.44,-338.96
347808.7276,107.787,-490.013,880.23,-17.5,2388.75,-831.25,97.28,57.76,-354.16
347808.7776,103.456,-483.059,884.988,420.0,2730.0,-866.25,109.44,44.08,-354.16
347808.8278,107.421,-487.573,884.622,-350.0,2511.25,-936.25,106.4,42.56,-340.48
347808.8776,108.031,-482.022,888.709,1163.75,2948.75,-787.5,100.32,48.64,-360.24
347808.9277,98.454,-479.216,882.792,43.75,3176.25,-463.75,95.76,50.16,-358.72
347808.9776,98.454,-485.194,885.964,-35.0,2371.25,-665.0,114.0,36.48,-338.96
347809.0276,111.325,-478.606,880.657,481.25,2528.75,-778.75,91.2,42.56,-340.48
347809.0776,107.97,-479.643,882.365,-437.5,3176.25,-691.25,106.4,57.76,-357.2
347809.1276,105.835,-486.597,884.378,183.75,2730.0,-157.5,98.8,45.6,-346.56
347809.1776,108.946,-484.645,885.293,892.5,2178.75,-866.25,98.8,41.04,-351.12
347809.2276,114.68,-475.434,888.282,-96.25,3666.25,-1076.25,103.36,53.2,-355.68
347809.2776,96.624,-495.381,884.134,813.75,2695.0,-455.0,103.36,47.12,-360.24
347809.3276,107.299,-478.301,883.28,1977.5,1828.75,113.75,117.04,38.0,-352.64
347809.3776,109.678,-476.105,882.365,-437.5,3167.5,-813.75,120.08,34.96,-343.52
347809.4276,101.565,-482.144,881.694,-446.25,2686.25,-516.25,110.96,34.96,-369.36
347809.4776,114.253,-482.51,886.452,-113.75,3342.5,-1015.0,118.56,31.92,-338.96
347809.5276,107.482,-486.963,886.757,-131.25,2773.75,-1023.75,104.88,51.68,-358.72
347809.5776,106.018,-483.608,885.476,656.25,2791.25,-848.75,100.32,44.08,-351.12
347809.6276,107.604,-473.055,884.317,113.75,3263.75,-525.0,104.88,47.12,-354.16
347809.6776,100.528,-482.205,884.927,-35.0,2905.0,-822.5,109.44,38.0,-349.6
347809.7276,111.752,-476.837,880.291,-560.0,2695.0,-533.75,115.52,41.04,-348.08
347809.7776,104.981,-487.329,884.317,-621.25,3088.75,-577.5,98.8,47.12,-355.68
347809.8276,104.249,-489.586,886.635,96.25,2747.5,-1548.75,112.48,39.52,-351.12
347809.8776,108.275,-476.532,883.402,-341.25,2843.75,288.75,118.56,39.52,-349.6
347809.9276,109.19,-484.218,884.256,271.25,2275.0,26.25,106.4,48.64,-348.08
347809.9776,107.909,-474.092,884.866,-840.0,3421.25,-1303.75,104.88,47.12,-349.6
347810.0276,104.981,-489.342,883.829,-17.5,2983.75,-227.5,107.92,39.52,-340.48
347810.0776,104.066,-482.571,884.378,70.0,2712.5,227.5,92.72,38.0,-346.56
347810.1276,118.401,-482.571,881.877,-271.25,3298.75,-542.5,103.36,44.08,-364.8
347810.1776,102.114,-489.586,878.888,-61.25,3482.5,-437.5,112.48,42.56,-340.48
347810.2276,103.761,-478.789,885.659,-201.25,3421.25,-1032.5,109.44,45.6,-335.92
347810.2776,103.944,-490.44,886.391,-857.5,2502.5,-1251.25,103.36,42.56,-357.2
347810.3276,107.97,-491.05,883.28,945.0,2476.25,-525.0,86.64,50.16,-346.56
347810.3776,105.835,-477.935,886.147,656.25,2633.75,-1050.0,115.52,44.08,-357.2
347810.4276,106.75,-476.715,882.975,-306.25,2738.75,-822.5,97.28,42.56,-342.0
347810.4776,107.787,-481.107,881.389,87.5,2616.25,-577.5,106.4,48.64,-348.08
347810.5276,109.556,-486.414,885.232,-717.5,3307.5,-1522.5,95.76,56.24,-358.72
347810.5776,99.552,-492.636,882.487,-350.0,3158.75,-901.25,92.72,39.52,-329.84
347810.6276,106.262,-482.876,881.328,376.25,2476.25,96.25,98.8,74.48,-354.16
347810.6776,112.728,-484.218,881.694,831.25,2301.25,-533.75,97.28,45.6,-348.08
347810.7276,104.432,-478.24,885.598,-1330.0,2957.5,-262.5,115.52,41.04,-349.6
347810.7776,104.92,-490.745,883.402,183.75,2616.25,183.75,94.24,47.12,-337.44
347810.8276,104.676,-482.754,882.609,17.5,2126.25,-157.5,88.16,48.64,-348.08
347810.8776,115.351,-486.841,881.572,-883.75,3806.25,-1496.25,109.44,34.96,-351.12
347810.9276,105.286,-490.684,882.243,428.75,2940.0,-883.75,100.32,51.68,-346.56
347810.9776,99.43,-481.9,888.465,122.5,3132.5,-848.75,107.92,47.12,-342.0
347811.0276,106.872,-486.536,883.89,-288.75,2450.0,-717.5,98.8,41.04,-357.2
347811.0776,108.031,-481.534,882.914,1076.25,2835.0,-551.25,110.96,44.08,-351.12
347811.1276,104.92,-479.094,885.537,-96.25,3010.0,-1137.5,107.92,47.12,-346.56
347811.1776,107.909,-480.07,881.877,-323.75,2887.5,-621.25,95.76,36.48,-360.24
347811.2276,114.131,-477.203,884.5,-490.0,3806.25,-953.75,106.4,54.72,-360.24
347811.2776,97.844,-482.449,884.805,-691.25,3368.75,-962.5,104.88,36.48,-340.48
347811.3276,101.077,-492.514,880.718,-603.75,2563.75,-288.75,104.88,51.68,-345.04
347811.3776,111.264,-490.318,879.376,341.25,2931.25,-332.5,114.0,39.52,-357.2
347811.4276,115.046,-484.401,885.72,1076.25,3150.0,-875.0,114.0,48.64,-346.56
347811.4776,102.724,-482.51,883.707,-472.5,3377.5,-1093.75,106.4,50.16,-331.36
347811.5276,105.347,-488.244,881.572,726.25,3263.75,-428.75,94.24,44.08,-357.2
347811.5776,104.31,-478.545,883.951,533.75,2362.5,-796.25,110.96,59.28,-340.48
347811.6276,111.02,-482.815,884.134,-665.0,3176.25,-726.25,94.24,44.08,-348.08
347811.6776,111.63,-486.963,883.463,-122.5,2870.0,-367.5,107.92,31.92,-354.16
347811.7276,106.445,-476.349,886.574,-560.0,3360.0,-743.75,92.72,30.4,-351.12
347811.7776,108.519,-485.377,884.134,-971.25,2913.75,-210.0,103.36,39.52,-349.6
347811.8276,101.931,-489.037,884.561,201.25,3036.25,-901.25,106.4,59.28,-338.96
347811.8776,107.543,-484.035,884.927,140.0,3097.5,-1146.25,97.28,51.68,-358.72
347811.9276,101.199,-486.353,880.596,402.5,2756.25,-568.75,115.52,47.12,-331.36
347811.9777,112.606,-480.68,880.596,437.5,2817.5,-796.25,114.0,48.64,-348.08
347812.0276,110.654,-478.728,884.927,-332.5,3517.5,-1093.75,98.8,44.08,-360.24
347812.0777,101.321,-488.122,882.914,131.25,2441.25,-665.0,98.8,48.64,-345.04
347812.1276,107.482,-481.534,879.254,-455.0,3001.25,-262.5,107.92,45.6,-345.04
347812.1776,114.253,-483.791,885.842,323.75,2940.0,-787.5,97.28,41.04,-342.0
347812.2276,101.931,-484.584,886.269,-1067.5,3561.25,-1225.0,97.28,51.68,-355.68
347812.2776,104.127,-496.357,882.67,-61.25,2800.0,-157.5,101.84,39.52,-355.68
347812.3276,108.885,-479.521,882.914,166.25,2686.25,-113.75,112.48,53.2,-351.12
347812.3776,112.179,-483.73,884.866,-647.5,3237.5,-1111.25,98.8,45.6,-351.12
347812.4276,109.922,-487.939,882.182,236.25,2948.75,-743.75,98.8,47.12,-348.08
347812.4776,100.345,-485.438,887.184,-140.0,2931.25,-577.5,117.04,34.96,-342.0
347812.5276,107.848,-485.621,883.28,236.25,2415.0,-577.5,110.96,45.6,-342.0
347812.5776,104.249,-484.645,885.293,297.5,3062.5,-472.5,106.4,50.16,-351.12
347812.6276,105.347,-484.645,884.866,323.75,2747.5,-1111.25,104.88,50.16,-357.2
347812.6776,105.957,-483.608,879.193,-218.75,2695.0,-673.75,109.44,36.48,-348.08
347812.7276,109.922,-483.791,885.11,17.5,3211.25,-481.25,103.36,53.2,-357.2
347812.7776,103.639,-484.95,881.755,-866.25,3307.5,-787.5,97.28,42.56,-354.16
347812.8276,102.785,-489.159,884.805,-131.25,2870.0,-603.75,97.28,36.48,-340.48
347812.8776,109.8,-484.279,879.315,131.25,2773.75,131.25,107.92,42.56,-355.68
347812.9276,111.02,-484.645,885.964,-8.75,3316.25,-665.0,104.88,45.6,-352.64
347812.9776,99.979,-491.721,884.622,-953.75,3150.0,-1181.25,101.84,45.6,-354.16
347813.0276,103.517,-494.283,879.376,516.25,2773.75,-533.75,127.68,45.6,-340.48
347813.0776,102.907,-485.499,882.06,402.5,1881.25,-87.5,95.76,33.44,-342.0
347813.1276,112.24,-483.73,880.718,201.25,2712.5,-875.0,109.44,45.6,-352.64
347813.1776,107.909,-483.852,881.755,446.25,3220.0,-1015.0,110.96,45.6,-334.4
347813.2276,100.65,-478.911,883.707,-446.25,3036.25,-691.25,114.0,42.56,-343.52
347813.2776,105.896,-487.207,881.084,-87.5,2966.25,-866.25,97.28,53.2,-360.24
347813.3276,105.774,-482.449,884.195,647.5,2922.5,-498.75,100.32,39.52,-364.8
347813.3776,103.761,-477.081,882.609,385.0,3010.0,-857.5,107.92,44.08,-338.96
347813.4276,106.445,-487.573,881.755,-577.5,2625.0,-647.5,112.48,45.6,-352.64
347813.4776,109.19,-482.51,883.707,-61.25,3036.25,-953.75,101.84,41.04,-348.08
347813.5276,105.286,-489.159,884.317,-691.25,3193.75,-1286.25,112.48,45.6,-340.48
347813.5776,104.92,-488.488,881.755,761.25,2590.0,-166.25,91.2,47.12,-346.56
347813.6276,110.593,-481.656,881.206,35.0,2887.5,-560.0,95.76,51.68,-357.2
347813.6776,118.584,-476.898,884.378,-192.5,3648.75,-1155.0,101.84,53.2,-366.32
347813.7276,104.249,-484.523,886.147,-980.0,3395.0,-586.25,103.36,34.96,-348.08
347813.7776,103.639,-490.806,881.633,201.25,3185.0,-105.0,112.48,45.6,-335.92
347813.8276,108.702,-480.558,883.097,-8.75,2721.25,-595.0,110.96,47.12,-348.08
347813.8776,110.715,-486.841,880.84,-682.5,3701.25,-1312.5,110.96,39.52,-364.8
347813.9276,106.018,-489.098,879.376,-35.0,3508.75,-1155.0,103.36,44.08,-343.52
347813.9776,100.894,-484.645,887.367,-420.0,3290.0,-673.75,109.44,45.6,-343.52
347814.0276,106.994,-495.991,882.182,796.25,2870.0,-1190.0,103.36,51.68,-351.12
347814.0776,104.066,-482.998,884.256,980.0,2992.5,-726.25,112.48,22.8,-331.36
347814.1276,102.236,-477.203,881.45,472.5,2940.0,-962.5,107.92,48.64,-348.08
347814.1776,109.495,-484.401,878.949,-507.5,3001.25,-910.0,98.8,39.52,-364.8
347814.2276,110.288,-483.425,882.975,-708.75,3675.0,-1111.25,104.88,48.64,-352.64
347814.2776,99.308,-493.063,884.5,-883.75,3596.25,-892.5,100.32,36.48,-346.56
347814.3276,102.175,-488.488,884.805,358.75,2922.5,-490.0,89.68,48.64,-340.48
347814.3776,97.539,-484.706,878.888,603.75,2870.0,-498.75,104.88,51.68,-358.72
347814.4276,107.299,-476.959,887.184,-787.5,3430.0,-848.75,110.96,38.0,-358.72
347814.4776,100.833,-497.333,884.073,-1093.75,3080.0,-875.0,103.36,48.64,-352.64
347814.5276,107.909,-481.717,882.548,656.25,2712.5,-446.25,114.0,42.56,-343.52
347814.5776,108.092,-486.902,880.596,-297.5,2966.25,-927.5,115.52,53.2,-342.0
347814.6276,104.615,-483.73,879.01,-210.0,2808.75,-691.25,103.36,42.56,-343.52
347814.6776,99.796,-491.111,886.391,-105.0,3333.75,-953.75,104.88,56.24,-349.6
347814.7276,104.737,-485.865,882.243,-52.5,2292.5,-945.0,110.96,54.72,-352.64
347814.7776,104.615,-489.342,881.816,603.75,3255.0,-988.75,112.48,39.52,-346.56
347814.8276,108.153,-480.863,882.121,840.0,2528.75,-656.25,98.8,53.2,-349.6
347814.8776,106.14,-477.508,879.071,192.5,2852.5,-595.0,114.0,59.28,-349.6
347814.9278,107.604,-487.024,880.657,-761.25,2677.5,-700.0,101.84,36.48,-334.4
347814.9776,100.04,-491.904,883.707,-43.75,2756.25,-752.5,103.36,30.4,-346.56
347815.0278,102.297,-492.697,883.951,402.5,2345.0,-857.5,103.36,42.56,-361.76
347815.0776,105.713,-482.815,879.925,682.5,3036.25,-385.0,115.52,48.64,-346.56
347815.1277,108.214,-480.802,882.975,533.75,2450.0,-927.5,103.36,48.64,-358.72
347815.1776,108.092,-478.301,881.999,-1286.25,3893.75,-691.25,97.28,48.64,-346.56
347815.2276,98.149,-490.623,881.816,-236.25,3132.5,-656.25,110.96,50.16,-349.6
347815.2776,106.994,-487.939,879.437,-210.0,2301.25,70.0,107.92,45.6,-337.44
347815.3276,107.055,-487.817,885.537,-96.25,2957.5,-708.75,97.28,45.6,-345.04
347815.3776,106.994,-489.83,882.914,315.0,2502.5,-551.25,94.24,60.8,-348.08
347815.4276,103.7,-478.362,883.951,280.0,3115.0,-743.75,107.92,50.16,-340.48
347815.4776,107.421,-481.473,883.463,-568.75,2747.5,-1513.75,104.88,56.24,-340.48
347815.5276,107.726,-480.741,884.988,-358.75,3701.25,-708.75,107.92,41.04,-351.12
347815.5776,99.247,-492.148,885.903,-271.25,2695.0,-691.25,112.48,44.08,-357.2
347815.6276,107.909,-485.316,879.742,-35.0,2738.75,-1050.0,118.56,47.12,-345.04
347815.6776,108.031,-483.547,879.62,-350.0,2756.25,-210.0,100.32,44.08,-355.68
347815.7276,102.602,-490.989,883.036,-542.5,2843.75,-288.75,97.28,38.0,-358.72
347815.7776,113.399,-486.78,884.317,140.0,2502.5,-455.0,91.2,59.28,-338.96
347815.8276,106.445,-488.122,879.803,192.5,2887.5,-105.0,100.32,57.76,-337.44
347815.8776,111.691,-476.288,887.062,0.0,3613.75,-1041.25,106.4,51.68,-361.76
347815.9276,102.846,-497.699,881.023,-411.25,3115.0,-988.75,114.0,45.6,-348.08
347815.9776,103.029,-487.817,879.498,840.0,2388.75,-8.75,103.36,50.16,-349.6
347816.0276,107.421,-482.632,882.06,-122.5,2730.0,-577.5,98.8,41.04,-355.68
347816.0776,106.445,-485.377,881.877,-918.75,3316.25,-883.75,94.24,42.56,-345.04
347816.1276,111.752,-488.732,881.023,271.25,3106.25,-787.5,101.84,54.72,-338.96
347816.1776,105.103,-490.44,885.476,-245.0,2546.25,-866.25,104.88,39.52,-352.64
347816.2276,110.837,-490.806,881.023,586.25,2913.75,-280.0,112.48,44.08,-363.28
347816.2776,104.371,-484.889,880.352,717.5,2817.5,-691.25,110.96,53.2,-352.64
347816.3276,105.469,-484.767,881.938,341.25,2765.0,-1076.25,85.12,54.72,-340.48
347816.3776,111.447,-479.094,879.986,87.5,2905.0,-516.25,91.2,47.12,-351.12
347816.4276,101.809,-490.867,883.707,-726.25,2975.0,-822.5,115.52,47.12,-351.12
347816.4776,107.787,-488.366,880.474,61.25,2817.5,-1015.0,115.52,50.16,-343.52
347816.5276,107.482,-484.584,880.291,-805.0,2957.5,78.75,104.88,48.64,-346.56
347816.5776,107.665,-494.405,882.731,437.5,2406.25,17.5,98.8,33.44,-349.6
347816.6276,107.726,-483.852,887.001,-638.75,3228.75,-1365.0,117.04,50.16,-357.2
347816.6776,107.726,-494.466,878.705,-175.0,3298.75,-892.5,89.68,45.6,-355.68
347816.7276,105.591,-482.876,879.132,140.0,2616.25,-122.5,106.4,50.16,-354.16
347816.7776,113.521,-483.181,881.328,-341.25,2808.75,-980.0,104.88,47.12,-355.68
347816.8276,102.236,-493.368,879.925,-358.75,3027.5,-280.0,103.36,50.16,-334.4
347816.8776,100.284,-483.242,887.184,350.0,2940.0,-866.25,106.4,57.76,-357.2
347816.9276,110.959,-486.719,885.293,-577.5,2353.75,-682.5,83.6,56.24,-351.12
347816.9776,108.153,-488.671,879.376,883.75,3097.5,-595.0,100.32,38.0,-334.4
347817.0276,103.578,-479.704,883.463,-210.0,2983.75,-1085.0,112.48,45.6,-346.56
347817.0776,106.872,-485.194,881.023,-420.0,2800.0,-1233.75,83.6,51.68,-349.6
347817.1276,108.214,-489.281,882.304,-61.25,3106.25,-201.25,103.36,47.12,-357.2
347817.1776,107.238,-486.17,879.803,-253.75,3263.75,-875.0,121.6,36.48,-352.64
347817.2276,103.029,-493.246,880.901,262.5,2773.75,-1015.0,104.88,42.56,-348.08
347817.2776,109.129,-483.913,879.62,332.5,3001.25,192.5,107.92,38.0,-346.56
347817.3276,116.144,-475.434,881.572,-166.25,3482.5,-1373.75,106.4,56.24,-345.04
347817.3776,103.151,-494.1,883.829,-1592.5,3412.5,-1172.5,109.44,39.52,-346.56
347817.4276,102.785,-500.322,879.62,43.75,3097.5,-148.75,100.32,42.56,-349.6
347817.4776,108.214,-479.582,880.779,385.0,2922.5,-358.75,97.28,53.2,-358.72
347817.5276,107.787,-492.27,879.925,-507.5,3596.25,-918.75,109.44,45.6,-352.64
347817.5776,107.543,-485.499,880.413,166.25,3001.25,-997.5,101.84,41.04,-337.44
347817.6276,102.541,-482.815,885.659,-988.75,3543.75,-525.0,103.36,51.68,-355.68
347817.6776,104.31,-494.771,881.389,-490.0,3115.0,-717.5,112.48,48.64,-360.24
347817.7276,101.016,-486.902,883.402,428.75,3193.75,-288.75,115.52,44.08,-343.52
347817.7776,104.249,-482.937,882.609,-288.75,2712.5,-1076.25,109.44,36.48,-352.64
347817.8276,104.737,-490.867,881.145,-376.25,3045.0,-472.5,95.76,50.16,-358.72
347817.8776,104.676,-492.27,879.986,43.75,2896.25,-630.0,92.72,44.08,-338.96
347817.9276,108.092,-490.867,881.45,-17.5,3071.25,-962.5,103.36,28.88,-352.64
347817.9776,103.822,-490.806,884.866,332.5,3683.75,-1015.0,104.88,59.28,-354.16
347818.0276,97.722,-482.327,879.437,472.5,3395.0,-743.75,101.84,45.6,-346.56
347818.0778,109.983,-480.802,885.415,-253.75,3123.75,-1391.25,106.4,44.08,-351.12
347818.1276,103.639,-493.612,878.4,-52.5,3132.5,-306.25,107.92,39.52,-346.56
347818.1777,99.613,-482.632,877.119,507.5,3062.5,87.5,103.36,44.08,-354.16
347818.2276,106.994,-485.316,880.352,-691.25,2695.0,-533.75,117.04,41.04,-351.12
347818.2776,104.066,-493.917,879.62,-901.25,3272.5,-560.0,114.0,50.16,-349.6
347818.3276,102.541,-491.782,880.535,-8.75,3386.25,-577.5,100.32,50.16,-351.12
347818.3776,103.029,-492.087,881.633,-918.75,1986.25,-297.5,97.28,44.08,-349.6
347818.4276,104.981,-497.272,878.156,848.75,2511.25,-463.75,107.92,47.12,-351.12
347818.4776,107.726,-483.547,879.803,201.25,2590.0,-901.25,103.36,41.04,-351.12
347818.5276,111.02,-485.377,876.814,446.25,2782.5,-892.5,109.44,50.16,-358.72
347818.5776,106.384,-493.185,877.79,-393.75,2922.5,-831.25,109.44,48.64,-338.96
347818.6276,110.654,-485.438,882.609,271.25,3351.25,-945.0,104.88,45.6,-345.04
347818.6776,107.97,-494.649,879.559,-297.5,4305.0,-1058.75,107.92,53.2,-360.24
347818.7276,101.016,-479.399,880.84,603.75,3526.25,-1286.25,114.0,34.96,-352.64
347818.7776,98.271,-486.963,880.108,-463.75,2345.0,-1461.25,114.0,41.04,-345.04
347818.8276,107.482,-487.085,885.964,-761.25,3071.25,-1058.75,101.84,51.68,-328.32
347818.8776,98.881,-491.965,881.023,656.25,2712.5,-122.5,100.32,42.56,-354.16
347818.9276,101.565,-485.865,879.803,988.75,2563.75,166.25,100.32,48.64,-349.6
347818.9776,103.761,-483.425,880.718,-262.5,2528.75,-385.0,91.2,57.76,-348.08
347819.0276,103.761,-487.878,879.193,-472.5,2835.0,-796.25,95.76,59.28,-349.6
347819.0776,109.495,-489.891,880.596,-105.0,3018.75,-647.5,109.44,48.64,-340.48
347819.1276,104.188,-493.551,886.391,-17.5,2397.5,-533.75,110.96,48.64,-345.04
347819.1776,106.262,-486.719,880.718,507.5,2520.0,-805.0,103.36,41.04,-343.52
347819.2276,106.018,-484.645,881.511,437.5,2467.5,-586.25,110.96,41.04,-349.6
347819.2776,103.7,-483.974,877.851,-122.5,2450.0,-787.5,95.76,44.08,-345.04
347819.3276,108.946,-488.0,878.522,-420.0,2922.5,-665.0,95.76,51.68,-346.56
347819.3776,105.896,-490.684,879.742,-656.25,3220.0,-533.75,100.32,47.12,-351.12
347819.4276,103.822,-495.137,882.426,-498.75,3027.5,-761.25,110.96,50.16,-337.44
347819.4776,108.092,-486.902,883.158,-26.25,2957.5,-367.5,110.96,47.12,-340.48
347819.5276,102.785,-489.037,881.023,358.75,2581.25,-411.25,95.76,42.56,-348.08
347819.5776,109.251,-481.961,885.842,-778.75,3185.0,-980.0,101.84,53.2,-348.08
347819.6276,103.456,-495.198,879.925,-481.25,3237.5,-656.25,109.44,48.64,-343.52
347819.6776,104.92,-484.523,880.291,157.5,2616.25,-245.0,89.68,45.6,-349.6
