TimeStamp,ax,ay,az,gx,gy,gz,mx,my,mz
348210.6776,88.145,132.248,1012.905,-1916.25,2957.5,5311.25,57.76,-214.32,-490.96
348210.7276,65.636,134.932,1002.047,-2371.25,2765.0,5503.75,57.76,-202.16,-500.08
348210.7776,79.117,128.954,997.167,-490.0,-2808.75,-848.75,54.72,-200.64,-492.48
348210.8276,136.457,141.276,988.566,-3736.25,-945.0,-4795.0,57.76,-205.2,-494.0
348210.8776,105.042,125.538,1000.461,-5845.0,4821.25,-4611.25,53.2,-203.68,-504.64
348210.9276,87.84,129.32,1004.975,-5705.0,4112.5,-2861.25,66.88,-214.32,-507.68
348210.9776,87.352,104.005,1010.343,-4821.25,4077.5,2555.0,59.28,-205.2,-495.52
348211.0276,87.718,100.101,1012.966,-3255.0,2581.25,3508.75,66.88,-200.64,-484.88
348211.0776,102.48,83.875,1018.029,-1793.75,2896.25,4891.25,51.68,-185.44,-484.88
348211.1276,90.219,67.466,1021.079,-157.5,3631.25,5766.25,51.68,-199.12,-492.48
348211.1776,77.714,84.241,1011.685,2590.0,2458.75,3841.25,62.32,-197.6,-486.4
348211.2276,101.077,100.467,998.448,3885.0,192.5,822.5,71.44,-188.48,-478.8
348211.2776,119.011,120.841,992.287,4445.0,2511.25,1942.5,42.56,-199.12,-492.48
348211.3276,96.502,132.858,995.337,-682.5,3815.0,358.75,57.76,-197.6,-477.28
348211.3776,106.079,116.449,1000.888,-4628.75,5136.25,3421.25,60.8,-199.12,-487.92
348211.4276,96.99,92.354,1010.709,-3062.5,5355.0,2642.5,60.8,-202.16,-487.92
348211.4776,99.308,96.441,1016.138,-568.75,4751.25,2318.75,65.36,-190.0,-475.76
348211.5276,93.269,100.589,1009.184,1697.5,5433.75,3333.75,63.84,-193.04,-490.96
348211.5776,78.263,123.891,1008.635,-350.0,3876.25,1522.5,68.4,-188.48,-481.84
348211.6276,79.788,111.813,1001.193,-2205.0,3071.25,2213.75,66.88,-191.52,-487.92
348211.6776,91.744,111.081,1004.121,560.0,831.25,1006.25,65.36,-188.48,-489.44
348211.7276,103.761,103.029,1002.108,-1960.0,3036.25,5127.5,68.4,-182.4,-474.24
348211.7776,104.249,102.48,1004.67,-341.25,3806.25,4488.75,59.28,-191.52,-490.96
348211.8276,102.358,95.831,1006.012,-2441.25,4086.25,4226.25,65.36,-177.84,-497.04
348211.8776,89.121,78.568,1010.404,-1137.5,4786.25,4042.5,77.52,-174.8,-490.96
348211.9276,86.62,99.796,1013.271,-236.25,2266.25,490.0,69.92,-190.0,-489.44
348211.9776,99.369,95.221,1002.047,-1793.75,2231.25,612.5,57.76,-176.32,-506.16
348212.0276,101.382,78.69,1012.722,717.5,2800.0,-70.0,65.36,-182.4,-495.52
348212.0776,94.367,93.391,1008.513,-253.75,3640.0,-840.0,76.0,-179.36,-481.84
348212.1276,92.354,79.971,1009.123,1356.25,3255.0,-385.0,66.88,-179.36,-481.84
348212.1776,90.036,111.63,1004.853,376.25,4226.25,-927.5,66.88,-180.88,-490.96
348212.2276,91.561,97.173,1009.123,980.0,2485.0,-472.5,66.88,-174.8,-494.0
348212.2776,98.393,104.249,1006.073,726.25,3097.5,245.0,53.2,-180.88,-486.4
348212.3276,97.051,96.563,1005.768,-393.75,3710.0,323.75,69.92,-185.44,-483.36
348212.3776,89.243,102.114,1007.72,175.0,3202.5,-682.5,62.32,-174.8,-487.92
348212.4276,86.315,96.868,1005.341,-61.25,3001.25,-726.25,72.96,-180.88,-494.0
348212.4776,93.147,98.271,1009.672,87.5,2590.0,-288.75,57.76,-177.84,-497.04
348212.5279,96.807,100.589,1004.121,-262.5,3263.75,953.75,60.8,-185.44,-498.56
348212.5776,88.45,91.683,1009.916,-988.75,4042.5,490.0,72.96,-185.44,-480.32
348212.6277,86.254,87.596,1008.147,-2196.25,3762.5,-201.25,54.72,-176.32,-487.92
348212.6776,85.339,86.498,1009.977,-113.75,2555.0,-2476.25,54.72,-182.4,-489.44
348212.7276,91.134,94.733,1006.805,-17.5,2467.5,-2651.25,68.4,-173.28,-492.48
348212.7776,80.337,105.469,1002.535,-105.0,2292.5,-2896.25,69.92,-183.92,-498.56
348212.8276,85.4,113.094,1004.548,-2896.25,1776.25,-2651.25,74.48,-180.88,-498.56
348212.8776,87.718,83.509,1007.537,-4340.0,1872.5,-1032.5,56.24,-186.96,-475.76
348212.9276,95.465,71.126,1012.112,-52.5,2537.5,752.5,83.6,-173.28,-494.0
348212.9776,93.025,83.448,1011.075,901.25,3535.0,1330.0,68.4,-186.96,-497.04
348213.0276,86.071,92.354,1005.219,428.75,2152.5,-682.5,71.44,-179.36,-492.48
348213.0776,96.624,84.607,1005.402,358.75,2310.0,-551.25,63.84,-182.4,-492.48
348213.1276,99.186,87.962,1007.11,918.75,3220.0,-105.0,68.4,-182.4,-465.12
348213.1776,89.792,91.317,1006.561,87.5,2633.75,-682.5,63.84,-177.84,-487.92
348213.2276,90.219,87.474,1004.243,-1347.5,2782.5,-665.0,59.28,-168.72,-495.52
348213.2776,96.319,76.311,1012.844,-271.25,2721.25,-1058.75,76.0,-180.88,-495.52
348213.3276,94.55,86.071,1013.21,542.5,3605.0,-122.5,63.84,-182.4,-489.44
348213.3776,90.768,88.45,1009.55,2021.25,3106.25,-253.75,68.4,-174.8,-495.52
348213.4276,87.474,92.293,1009.916,1128.75,2668.75,-1277.5,59.28,-177.84,-492.48
348213.4776,91.012,96.319,1003.389,-17.5,2563.75,-1006.25,69.92,-176.32,-494.0
348213.5276,93.33,91.561,1008.086,446.25,2817.5,-1155.0,68.4,-188.48,-486.4
348213.5776,92.171,95.16,1008.879,-568.75,3298.75,-813.75,54.72,-176.32,-489.44
348213.6276,86.437,90.829,1007.537,192.5,2922.5,-892.5,69.92,-179.36,-498.56
348213.6776,90.219,94.611,1007.049,-805.0,2546.25,-752.5,59.28,-183.92,-483.36
348213.7276,94.855,80.886,1009.55,516.25,2528.75,-201.25,63.84,-168.72,-492.48
348213.7776,97.295,98.637,1006.195,-533.75,3946.25,227.5,63.84,-173.28,-492.48
348213.8276,85.156,87.108,1007.293,-682.5,2537.5,-682.5,66.88,-173.28,-481.84
348213.8776,94.489,87.291,1005.585,-770.0,3001.25,-271.25,65.36,-174.8,-484.88
348213.9276,90.89,83.448,1013.332,-113.75,3386.25,192.5,62.32,-177.84,-490.96
348213.9776,86.071,76.311,1006.805,122.5,2773.75,-280.0,53.2,-179.36,-494.0
348214.0276,94.916,100.65,1012.051,-350.0,3972.5,175.0,65.36,-176.32,-475.76
348214.0776,90.707,84.973,1006.317,1268.75,3036.25,17.5,63.84,-171.76,-497.04
348214.1276,100.101,100.833,1005.158,-560.0,3325.0,-35.0,53.2,-176.32,-512.24
348214.1776,91.012,82.899,1010.648,-393.75,3325.0,428.75,71.44,-188.48,-500.08
348214.2276,94.428,91.5,1007.964,-463.75,3246.25,-35.0,57.76,-177.84,-481.84
348214.2776,89.609,91.134,1006.439,-2310.0,4156.25,-577.5,51.68,-183.92,-486.4
348214.3276,88.145,84.729,1007.476,-805.0,2931.25,-822.5,53.2,-174.8,-480.32
348214.3776,85.888,84.058,1011.197,-463.75,2511.25,-1181.25,77.52,-182.4,-498.56
348214.4276,89.914,88.45,1008.574,-1268.75,2633.75,-980.0,68.4,-186.96,-484.88
348214.4776,91.744,86.742,1006.561,-1382.5,2257.5,376.25,63.84,-164.16,-487.92
348214.5276,94.489,81.13,1005.219,-2100.0,2738.75,595.0,60.8,-183.92,-503.12
348214.5776,93.757,69.052,1012.783,-1286.25,2983.75,-2196.25,66.88,-182.4,-495.52
348214.6276,89.548,71.37,1007.537,-1583.75,2231.25,-4217.5,65.36,-168.72,-489.44
348214.6776,94.001,70.455,1012.295,-210.0,2152.5,-2152.5,63.84,-179.36,-498.56
348214.7276,94.672,77.775,1012.783,-280.0,2948.75,-700.0,62.32,-179.36,-490.96
348214.7776,90.219,89.243,1007.293,280.0,3692.5,455.0,65.36,-183.92,-483.36
348214.8276,84.912,81.984,1009.123,262.5,2730.0,-8.75,62.32,-174.8,-481.84
348214.8776,87.23,84.729,1011.38,-691.25,2371.25,-437.5,72.96,-173.28,-487.92
348214.9276,93.269,72.651,1007.903,551.25,2633.75,1137.5,80.56,-173.28,-498.56
348214.9776,91.073,82.96,1008.391,332.5,3648.75,1618.75,69.92,-180.88,-481.84
348215.0276,87.84,83.692,1007.964,516.25,2528.75,1155.0,65.36,-176.32,-501.6
348215.0776,88.511,81.435,1006.195,-665.0,2572.5,1015.0,59.28,-173.28,-490.96
348215.1276,92.964,81.74,1007.171,-1050.0,1767.5,-551.25,74.48,-177.84,-489.44
348215.1776,101.077,72.346,1010.099,-577.5,2353.75,-1137.5,83.6,-173.28,-494.0
348215.2276,100.162,77.226,1012.051,-472.5,2835.0,-542.5,69.92,-168.72,-503.12
348215.2776,88.694,71.858,1011.014,210.0,2782.5,-752.5,63.84,-171.76,-503.12
348215.3276,96.075,74.298,1009.855,1312.5,1951.25,-1461.25,66.88,-170.24,-487.92
348215.3776,101.748,85.888,1007.354,411.25,2572.5,-1251.25,69.92,-176.32,-489.44
348215.4276,93.086,86.986,1005.951,-638.75,3797.5,-743.75,62.32,-167.2,-498.56
348215.4776,91.805,79.117,1005.097,-1548.75,3832.5,-26.25,60.8,-176.32,-490.96
348215.5276,91.378,74.603,1008.574,-735.0,3403.75,551.25,59.28,-176.32,-477.28
348215.5778,88.694,76.067,1009.794,218.75,2800.0,-148.75,69.92,-171.76,-483.36
348215.6276,94.367,78.873,1010.099,-507.5,2240.0,-945.0,59.28,-165.68,-483.36
348215.6777,100.528,93.574,1005.951,-568.75,3675.0,-148.75,76.0,-177.84,-500.08
348215.7276,82.228,78.812,1010.892,-1330.0,3018.75,131.25,76.0,-177.84,-486.4
348215.7777,98.759,72.407,1008.391,157.5,2178.75,-315.0,66.88,-180.88,-500.08
348215.8276,101.443,75.518,1012.234,192.5,2765.0,-122.5,63.84,-182.4,-503.12
348215.8776,92.598,72.346,1010.831,-350.0,3491.25,-437.5,77.52,-179.36,-483.36
348215.9276,90.341,72.285,1007.72,376.25,2353.75,-1085.0,57.76,-174.8,-487.92
348215.9776,99.43,80.154,1007.415,-953.75,2546.25,-227.5,59.28,-173.28,-498.56
348216.0276,96.624,68.137,1010.343,-586.25,2730.0,8.75,53.2,-171.76,-497.04
348216.0776,95.648,67.893,1009.977,813.75,2642.5,-297.5,72.96,-165.68,-483.36
348216.1276,96.502,68.32,1010.16,271.25,2905.0,-813.75,53.2,-174.8,-494.0
348216.1776,96.99,73.627,1008.757,883.75,2458.75,-1321.25,56.24,-173.28,-498.56
348216.2276,101.992,76.128,1007.781,1198.75,2668.75,-323.75,74.48,-171.76,-497.04
348216.2776,98.393,84.424,1006.378,481.25,3841.25,-691.25,60.8,-171.76,-483.36
348216.3276,90.402,81.069,1006.805,-857.5,3368.75,-428.75,50.16,-174.8,-494.0
348216.3776,95.77,68.991,1008.574,-612.5,2668.75,-1015.0,62.32,-174.8,-495.52
348216.4276,99.979,68.503,1009.672,-350.0,2660.0,-595.0,72.96,-165.68,-486.4
348216.4776,94.611,72.468,1013.21,297.5,3010.0,-708.75,65.36,-177.84,-490.96
348216.5276,99.43,80.703,1005.646,656.25,3106.25,-1251.25,48.64,-159.6,-490.96
348216.5776,95.343,81.374,1005.341,0.0,2948.75,-1155.0,66.88,-179.36,-486.4
348216.6276,98.454,75.884,1011.258,-805.0,2931.25,-595.0,69.92,-162.64,-497.04
348216.6776,96.502,74.603,1009.916,-848.75,2808.75,-551.25,60.8,-155.04,-490.96
348216.7276,97.295,71.858,1008.269,-507.5,3141.25,-875.0,65.36,-162.64,-503.12
348216.7776,88.328,70.577,1010.404,-131.25,3185.0,-1618.75,82.08,-182.4,-487.92
348216.8276,94.855,71.126,1011.746,-148.75,2537.5,-1461.25,63.84,-176.32,-471.2
348216.8777,97.295,68.442,1009.367,-113.75,3167.5,-210.0,68.4,-179.36,-498.56
348216.9276,93.635,73.871,1009.367,630.0,3036.25,-140.0,53.2,-171.76,-500.08
348216.9776,98.271,71.126,1009.001,-752.5,3018.75,-603.75,57.76,-179.36,-484.88
348217.0276,96.319,69.723,1009.245,-78.75,2975.0,-787.5,63.84,-174.8,-497.04
348217.0776,93.147,71.553,1009.794,105.0,2843.75,-297.5,60.8,-177.84,-489.44
348217.1276,101.748,74.542,1010.404,271.25,3508.75,-647.5,63.84,-173.28,-481.84
348217.1776,87.291,74.42,1011.197,-752.5,3132.5,-726.25,82.08,-174.8,-497.04
348217.2276,93.025,66.917,1005.036,-70.0,2056.25,-857.5,68.4,-176.32,-494.0
348217.2776,93.269,65.026,1010.099,245.0,2161.25,-1303.75,57.76,-176.32,-483.36
348217.3276,106.872,75.396,1008.879,245.0,2695.0,-350.0,74.48,-174.8,-489.44
348217.3776,103.09,78.446,1008.391,673.75,3911.25,78.75,71.44,-167.2,-477.28
348217.4276,93.025,75.213,1007.537,113.75,3412.5,-411.25,65.36,-171.76,-501.6
348217.4776,95.892,70.699,1008.818,-367.5,2905.0,-332.5,53.2,-177.84,-487.92
348217.5276,99.674,69.784,1009.977,332.5,2913.75,-542.5,69.92,-168.72,-480.32
348217.5776,96.868,71.98,1010.953,743.75,2817.5,-411.25,72.96,-168.72,-494.0
348217.6276,96.746,75.274,1005.524,17.5,2983.75,-446.25,59.28,-162.64,-495.52
348217.6776,98.698,73.2,1005.829,-271.25,2476.25,-428.75,65.36,-161.12,-478.8
348217.7276,102.114,65.209,1011.868,17.5,3185.0,61.25,57.76,-168.72,-490.96
348217.7777,101.077,62.769,1011.075,498.75,3360.0,-402.5,63.84,-167.2,-487.92
348217.8276,98.82,66.795,1009.855,1662.5,2800.0,-1443.75,60.8,-177.84,-484.88
348217.8776,95.526,77.348,1004.487,2038.75,2975.0,-1295.0,53.2,-180.88,-478.8
348217.9276,99.003,88.084,1003.938,875.0,3526.25,-1067.5,71.44,-164.16,-481.84
348217.9776,87.108,86.01,1010.465,367.5,3115.0,-1120.0,69.92,-176.32,-489.44
348218.0276,93.269,83.448,1006.256,-52.5,2782.5,-875.0,56.24,-168.72,-494.0
348218.0776,93.391,78.873,1010.221,-262.5,2660.0,-927.5,62.32,-180.88,-478.8
348218.1276,98.881,81.862,1008.33,26.25,2686.25,-770.0,54.72,-161.12,-472.72
348218.1776,98.454,80.764,1006.073,-192.5,2607.5,-140.0,53.2,-158.08,-495.52
348218.2276,99.552,81.374,1007.293,-61.25,3517.5,-735.0,60.8,-170.24,-487.92
348218.2776,94.55,78.507,1007.903,166.25,3080.0,-428.75,63.84,-177.84,-489.44
348218.3276,98.393,82.35,1008.208,297.5,2878.75,-533.75,62.32,-173.28,-497.04
348218.3776,99.918,75.945,1006.622,-577.5,3377.5,131.25,53.2,-170.24,-481.84
348218.4276,92.415,76.128,1009.001,-236.25,3675.0,-262.5,50.16,-177.84,-486.4
348218.4776,94.367,73.566,1006.134,-245.0,2791.25,-1268.75,74.48,-173.28,-484.88
348218.5276,96.99,74.542,1008.757,-35.0,2721.25,-997.5,65.36,-170.24,-486.4
348218.5776,98.759,76.982,1010.892,52.5,3395.0,78.75,66.88,-164.16,-492.48
348218.6278,90.707,75.823,1010.465,-17.5,3106.25,-385.0,71.44,-173.28,-484.88
348218.6776,96.624,78.324,1010.282,726.25,2660.0,-1181.25,60.8,-176.32,-487.92
348218.7277,96.075,82.716,1008.208,813.75,3211.25,-140.0,62.32,-165.68,-495.52
348218.7776,95.221,87.718,1008.33,822.5,3622.5,-927.5,62.32,-153.52,-501.6
348218.8277,96.99,84.546,1006.744,-157.5,2887.5,-1303.75,59.28,-161.12,-481.84
348218.8776,92.171,78.629,1009.001,-726.25,3438.75,-1330.0,72.96,-168.72,-495.52
348218.9276,92.415,79.544,1009.489,-8.75,2476.25,-1198.75,53.2,-170.24,-490.96
348218.9776,95.953,76.311,1009.123,-446.25,2940.0,-743.75,71.44,-176.32,-478.8
348219.0276,101.504,83.936,1008.025,218.75,3036.25,-507.5,66.88,-173.28,-484.88
348219.0776,94.733,78.873,1008.33,-971.25,3237.5,-848.75,63.84,-165.68,-483.36
348219.1276,93.818,76.372,1007.476,-980.0,2887.5,-1268.75,60.8,-179.36,-486.4
348219.1776,93.635,69.357,1013.21,-1137.5,3132.5,-682.5,59.28,-170.24,-481.84
348219.2276,91.622,66.551,1011.441,-87.5,3552.5,-236.25,68.4,-170.24,-490.96
348219.2776,85.217,71.004,1011.258,420.0,2975.0,-971.25,65.36,-170.24,-490.96
348219.3276,93.574,73.261,1005.097,297.5,2773.75,-43.75,59.28,-165.68,-478.8
348219.3776,89.487,73.383,1007.72,551.25,2660.0,857.5,66.88,-173.28,-484.88
348219.4276,91.561,76.311,1008.757,-148.75,2240.0,656.25,71.44,-168.72,-495.52
348219.4776,95.587,67.71,1011.319,1268.75,2572.5,953.75,60.8,-173.28,-504.64
348219.5276,95.221,71.248,1011.685,1242.5,2555.0,805.0,79.04,-165.68,-478.8
348219.5776,102.541,79.117,1006.988,2948.75,2756.25,-1356.25,63.84,-179.36,-477.28
348219.6276,94.733,81.069,1012.051,1277.5,3176.25,-2170.0,66.88,-159.6,-494.0
348219.6776,97.173,75.335,1006.561,1960.0,3395.0,-1583.75,57.76,-180.88,-510.72
348219.7276,90.646,82.838,1010.77,1566.25,3167.5,-525.0,68.4,-170.24,-494.0
348219.7776,92.354,85.034,1005.524,2633.75,2213.75,-218.75,77.52,-177.84,-490.96
348219.8276,96.197,101.931,1001.376,953.75,2441.25,-148.75,54.72,-179.36,-483.36
348219.8776,96.075,99.857,1003.694,568.75,2607.5,-455.0,69.92,-179.36,-494.0
348219.9276,94.489,93.33,1008.147,-822.5,2511.25,-901.25,74.48,-174.8,-484.88
348219.9776,99.918,81.374,1012.783,-35.0,2607.5,-533.75,59.28,-182.4,-484.88
348220.0276,103.639,77.226,1013.271,1758.75,3158.75,-708.75,69.92,-183.92,-495.52
348220.0776,97.783,80.215,1010.892,3281.25,3447.5,-2292.5,66.88,-174.8,-490.96
348220.1276,98.027,92.659,1007.11,3596.25,3552.5,-2126.25,69.92,-190.0,-480.32
348220.1776,94.306,99.186,1005.158,2870.0,4340.0,-1557.5,54.72,-168.72,-489.44
348220.2276,85.156,111.447,996.557,1688.75,3823.75,-1058.75,68.4,-174.8,-501.6
348220.2776,91.012,106.018,1004.975,-210.0,2310.0,-883.75,72.96,-186.96,-492.48
348220.3276,97.905,95.77,1007.415,-341.25,2353.75,-402.5,74.48,-180.88,-487.92
348220.3776,95.404,95.587,1010.221,1400.0,2642.5,-437.5,54.72,-177.84,-489.44
348220.4276,94.794,111.325,1010.587,936.25,3150.0,-1557.5,65.36,-180.88,-490.96
348220.4776,89.609,112.24,1004.731,227.5,2808.75,-1015.0,68.4,-188.48,-489.44
348220.5276,91.5,106.14,1001.986,-183.75,3001.25,-796.25,57.76,-177.84,-498.56
348220.5776,93.086,100.833,1004.243,-805.0,2756.25,-595.0,66.88,-179.36,-492.48
348220.6276,92.293,98.027,1007.964,35.0,2283.75,-796.25,63.84,-177.84,-477.28
348220.6776,101.931,100.284,1007.72,-1242.5,3062.5,-586.25,66.88,-174.8,-494.0
348220.7276,95.16,97.356,1005.768,-1128.75,3132.5,-568.75,68.4,-183.92,-487.92
348220.7776,95.587,94.733,1006.378,-796.25,2450.0,-455.0,57.76,-174.8,-498.56
348220.8276,101.748,95.587,1005.28,-647.5,3097.5,-183.75,77.52,-177.84,-484.88
348220.8776,95.465,93.818,1008.086,-140.0,3263.75,-551.25,71.44,-177.84,-489.44
348220.9276,91.927,99.613,1008.635,-682.5,2808.75,-1085.0,60.8,-171.76,-490.96
348220.9776,92.11,92.171,1006.866,-945.0,2826.25,-393.75,69.92,-182.4,-492.48
348221.0276,93.086,94.977,1007.232,-297.5,2546.25,227.5,66.88,-185.44,-489.44
348221.0776,99.308,93.025,1007.11,-490.0,2555.0,-52.5,54.72,-176.32,-492.48
348221.1276,96.136,91.744,1007.659,113.75,2966.25,-437.5,68.4,-177.84,-490.96
348221.1776,99.979,92.293,1005.951,175.0,3307.5,-1067.5,65.36,-177.84,-495.52
348221.2276,97.112,101.748,1007.598,-148.75,3561.25,-1671.25,74.48,-180.88,-490.96
348221.2776,93.086,95.709,1007.171,-463.75,2633.75,-1417.5,54.72,-165.68,-501.6
348221.3276,95.404,94.733,1008.025,-507.5,2817.5,-551.25,57.76,-176.32,-478.8
348221.3776,95.343,91.805,1008.147,-673.75,2940.0,52.5,63.84,-179.36,-481.84
348221.4276,97.112,89.731,1008.696,-717.5,2660.0,-1181.25,65.36,-186.96,-492.48
348221.4776,101.321,96.441,1007.476,-227.5,3605.0,-945.0,72.96,-174.8,-495.52
348221.5276,90.524,94.611,1010.465,-682.5,2983.75,-787.5,60.8,-164.16,-494.0
348221.5776,96.319,93.513,1007.11,-630.0,2546.25,-945.0,72.96,-177.84,-501.6
348221.6276,97.844,84.79,1008.574,402.5,2922.5,-43.75,62.32,-174.8,-495.52
348221.6776,96.807,93.025,1009.184,-280.0,3097.5,-1102.5,66.88,-171.76,-478.8
348221.7276,92.598,85.705,1009.977,-175.0,2555.0,-1627.5,63.84,-177.84,-498.56
348221.7776,97.6,90.524,1007.415,78.75,2791.25,-700.0,53.2,-182.4,-480.32
348221.8276,94.123,88.877,1006.134,-481.25,2931.25,-288.75,60.8,-174.8,-486.4
348221.8777,92.11,88.023,1007.598,227.5,2590.0,-533.75,71.44,-177.84,-498.56
348221.9276,98.637,95.221,1005.219,-323.75,3403.75,-700.0,60.8,-179.36,-475.76
348221.9777,99.247,90.646,1007.903,-647.5,3395.0,-1575.0,65.36,-182.4,-489.44
348222.0276,89.487,87.474,1011.929,-70.0,3106.25,-1802.5,56.24,-170.24,-481.84
348222.0776,90.951,87.657,1009.001,-568.75,3123.75,-673.75,76.0,-180.88,-483.36
348222.1276,90.524,86.254,1009.062,52.5,2712.5,-17.5,74.48,-177.84,-486.4
348222.1776,97.173,92.842,1005.219,-105.0,2581.25,-166.25,62.32,-173.28,-507.68
348222.2276,99.064,90.646,1006.927,201.25,2581.25,-665.0,66.88,-180.88,-497.04
348222.2776,90.28,95.587,1009.672,-393.75,3027.5,-910.0,77.52,-196.08,-494.0
348222.3276,91.805,87.352,1008.696,-831.25,2248.75,-43.75,42.56,-176.32,-484.88
348222.3776,96.868,85.766,1009.611,-315.0,3228.75,-105.0,62.32,-174.8,-494.0
348222.4276,92.72,88.267,1009.184,236.25,3228.75,-1242.5,77.52,-168.72,-495.52
348222.4776,95.282,88.45,1008.33,52.5,3010.0,-1653.75,60.8,-176.32,-489.44
348222.5276,92.476,92.537,1006.195,-288.75,3158.75,-1303.75,51.68,-171.76,-507.68
348222.5776,94.733,89.731,1005.219,-673.75,3395.0,-883.75,59.28,-173.28,-483.36
348222.6276,89.67,85.156,1010.648,-595.0,2196.25,-735.0,68.4,-186.96,-480.32
348222.6776,102.419,82.106,1007.903,350.0,3132.5,-393.75,66.88,-177.84,-487.92
348222.7276,97.783,90.707,1010.404,183.75,3456.25,-551.25,60.8,-174.8,-494.0
348222.7776,85.827,89.914,1010.16,-105.0,3246.25,-918.75,69.92,-177.84,-489.44
348222.8276,91.988,87.23,1006.866,-551.25,2275.0,-341.25,62.32,-170.24,-487.92
348222.8776,93.818,84.119,1007.659,297.5,3071.25,105.0,62.32,-179.36,-486.4
348222.9276,91.195,89.243,1010.282,376.25,2493.75,35.0,77.52,-180.88,-494.0
348222.9776,102.724,86.254,1009.977,411.25,2275.0,-175.0,65.36,-183.92,-478.8
348223.0276,95.831,90.463,1008.33,341.25,3255.0,-910.0,65.36,-176.32,-494.0
348223.0776,95.343,92.293,1008.94,-210.0,2782.5,-796.25,59.28,-180.88,-490.96
348223.1276,96.685,85.034,1008.208,560.0,2616.25,-1120.0,62.32,-170.24,-513.76
348223.1776,98.82,91.195,1006.622,621.25,2712.5,-1233.75,74.48,-173.28,-483.36
348223.2276,98.454,91.683,1006.805,280.0,3386.25,-1181.25,62.32,-176.32,-507.68
348223.2776,92.11,95.648,1006.622,-586.25,2966.25,-988.75,72.96,-161.12,-489.44
348223.3276,94.123,90.463,1008.208,-892.5,2870.0,-726.25,74.48,-182.4,-498.56
348223.3776,95.709,82.35,1008.452,-525.0,2940.0,-140.0,62.32,-170.24,-483.36
348223.4276,95.953,83.692,1008.513,673.75,3106.25,-183.75,51.68,-176.32,-495.52
348223.4776,93.452,95.465,1009.977,-350.0,3727.5,-673.75,76.0,-176.32,-487.92
348223.5276,92.354,84.241,1005.89,-533.75,2826.25,-78.75,80.56,-180.88,-490.96
348223.5776,97.173,83.387,1003.511,-323.75,2782.5,-52.5,66.88,-170.24,-494.0
348223.6276,93.513,84.119,1008.574,218.75,2791.25,-717.5,56.24,-177.84,-486.4
348223.6776,96.075,83.143,1008.635,271.25,1925.0,-848.75,59.28,-171.76,-500.08
348223.7276,95.892,87.901,1006.988,70.0,3788.75,-1015.0,50.16,-170.24,-494.0
348223.7776,92.049,89.182,1008.269,-17.5,2380.0,-1067.5,60.8,-185.44,-495.52
348223.8276,102.724,89.487,1007.659,-245.0,3202.5,-1006.25,72.96,-182.4,-497.04
348223.8776,95.465,89.731,1009.489,271.25,3605.0,-551.25,63.84,-186.96,-484.88
348223.9276,95.77,90.097,1007.11,-402.5,3535.0,-735.0,71.44,-177.84,-494.0
348223.9776,93.33,91.805,1007.354,-612.5,3290.0,-1032.5,56.24,-171.76,-498.56
348224.0276,108.58,86.193,1008.94,-1155.0,2983.75,-752.5,77.52,-177.84,-494.0
348224.0776,94.916,80.093,1009.428,-603.75,3027.5,-700.0,62.32,-185.44,-481.84
348224.1276,96.685,79.178,1010.404,507.5,2721.25,-577.5,68.4,-168.72,-484.88
348224.1776,100.589,88.755,1008.269,708.75,3456.25,-857.5,80.56,-179.36,-490.96
348224.2276,92.964,85.949,1007.659,-787.5,3272.5,-1023.75,74.48,-177.84,-486.4
348224.2776,96.441,82.777,1004.67,-1198.75,3193.75,-1111.25,56.24,-176.32,-490.96
348224.3276,91.744,73.444,1010.892,-183.75,3298.75,-962.5,71.44,-168.72,-498.56
348224.3776,89.731,84.241,1009.489,402.5,2695.0,-1093.75,71.44,-183.92,-487.92
348224.4276,96.502,82.167,1008.818,516.25,3351.25,-656.25,72.96,-180.88,-484.88
348224.4776,86.742,89.609,1008.025,-210.0,2896.25,-428.75,65.36,-177.84,-501.6
348224.5276,90.646,88.267,1006.256,-621.25,2371.25,-656.25,59.28,-167.2,-494.0
348224.5776,95.648,86.559,1007.232,-437.5,2651.25,-385.0,74.48,-171.76,-494.0
348224.6276,90.463,83.265,1009.855,-306.25,2712.5,-603.75,60.8,-174.8,-495.52
348224.6776,92.903,79.666,1007.415,-148.75,2231.25,-638.75,66.88,-165.68,-490.96
348224.7276,90.646,81.008,1007.903,-306.25,2808.75,-428.75,76.0,-180.88,-497.04
348224.7776,91.805,78.446,1007.415,-437.5,2660.0,-735.0,69.92,-179.36,-489.44
348224.8276,97.417,81.069,1009.794,-87.5,2301.25,-341.25,51.68,-183.92,-489.44
348224.8776,96.746,81.74,1008.94,218.75,3193.75,-17.5,72.96,-171.76,-495.52
348224.9276,91.195,95.465,1007.476,-463.75,3307.5,-700.0,76.0,-165.68,-503.12
348224.9776,86.559,73.444,1008.513,-2782.5,1960.0,-568.75,66.88,-182.4,-487.92
348225.0278,97.234,62.769,1012.112,192.5,1846.25,-472.5,60.8,-177.84,-490.96
348225.0776,94.367,70.272,1012.234,1242.5,2205.0,-26.25,54.72,-168.72,-487.92
348225.1278,93.818,80.398,1006.866,988.75,2196.25,-778.75,60.8,-165.68,-490.96
348225.1776,101.87,86.742,1004.487,752.5,2537.5,-700.0,65.36,-171.76,-494.0
348225.2277,96.136,87.169,1007.964,-271.25,3193.75,-761.25,59.28,-171.76,-504.64
348225.2776,93.818,88.084,1007.842,-665.0,2616.25,-831.25,72.96,-159.6,-492.48
348225.3276,105.347,78.812,1007.232,-1225.0,3150.0,-612.5,60.8,-177.84,-490.96
348225.3776,96.929,72.956,1012.722,-157.5,2922.5,-1575.0,47.12,-170.24,-487.92
348225.4276,93.391,77.226,1009.977,271.25,2546.25,-1846.25,65.36,-171.76,-490.96
348225.4776,102.053,78.324,1008.391,70.0,2826.25,-621.25,66.88,-179.36,-487.92
348225.5276,96.502,78.934,1007.964,131.25,3027.5,-446.25,72.96,-174.8,-477.28
348225.5776,98.698,78.995,1007.171,-236.25,2633.75,-446.25,60.8,-179.36,-495.52
348225.6276,100.284,69.54,1011.624,253.75,2843.75,-96.25,65.36,-173.28,-503.12
348225.6776,102.419,77.531,1008.452,437.5,3403.75,-113.75,63.84,-173.28,-497.04
348225.7276,91.317,80.886,1008.879,481.25,3395.0,-1216.25,53.2,-171.76,-497.04
348225.7776,90.463,83.814,1006.805,-166.25,2861.25,-1111.25,71.44,-173.28,-490.96
348225.8276,94.489,78.446,1010.465,-17.5,2975.0,-490.0,69.92,-177.84,-483.36
348225.8776,94.733,80.886,1008.147,323.75,2948.75,-280.0,51.68,-165.68,-472.72
348225.9276,94.062,81.801,1009.977,498.75,2502.5,-752.5,53.2,-171.76,-504.64
348225.9776,98.027,84.851,1008.513,-43.75,2992.5,-288.75,62.32,-170.24,-495.52
348226.0276,92.537,85.339,1009.306,-516.25,3036.25,-358.75,66.88,-168.72,-495.52
348226.0776,101.687,80.215,1007.903,-280.0,2353.75,-463.75,57.76,-164.16,-487.92
348226.1276,103.517,80.459,1007.72,-201.25,2966.25,-210.0,57.76,-164.16,-478.8
348226.1776,96.014,83.143,1008.269,-446.25,2983.75,-1137.5,76.0,-180.88,-486.4
348226.2276,97.844,79.605,1005.585,-665.0,2546.25,-883.75,59.28,-165.68,-504.64
348226.2776,98.759,79.361,1009.123,-560.0,2948.75,-17.5,59.28,-185.44,-507.68
348226.3276,98.881,71.614,1009.428,-323.75,2642.5,96.25,68.4,-177.84,-477.28
348226.3776,102.175,73.139,1009.001,-43.75,2572.5,-638.75,54.72,-170.24,-481.84
348226.4276,98.027,72.59,1010.282,332.5,2861.25,-997.5,59.28,-165.68,-497.04
348226.4776,99.369,79.544,1006.317,682.5,2756.25,-770.0,66.88,-165.68,-489.44
348226.5276,102.602,81.801,1006.805,735.0,3167.5,-630.0,68.4,-183.92,-480.32
348226.5776,93.757,85.644,1008.147,-253.75,2940.0,-918.75,69.92,-176.32,-481.84
348226.6276,95.831,77.714,1007.415,-1111.25,2843.75,-577.5,62.32,-173.28,-490.96
348226.6776,96.685,73.627,1010.404,-638.75,2721.25,-306.25,69.92,-180.88,-484.88
348226.7276,99.247,78.202,1012.417,17.5,2738.75,-516.25,69.92,-165.68,-486.4
348226.7776,103.761,79.788,1008.513,717.5,2590.0,-682.5,54.72,-170.24,-495.52
348226.8276,97.966,80.032,1007.415,-411.25,3158.75,-700.0,65.36,-176.32,-490.96
348226.8776,96.441,77.348,1007.476,-183.75,2581.25,-918.75,60.8,-179.36,-472.72
348226.9276,100.65,78.69,1008.452,-901.25,2703.75,-332.5,56.24,-168.72,-504.64
348226.9776,98.515,74.298,1007.049,-140.0,2808.75,183.75,66.88,-168.72,-490.96
348227.0276,95.404,77.226,1011.319,-323.75,2598.75,-813.75,68.4,-180.88,-497.04
348227.0776,100.711,72.468,1009.672,-332.5,2651.25,-603.75,62.32,-173.28,-497.04
348227.1276,98.637,70.638,1010.526,113.75,2450.0,-420.0,60.8,-170.24,-486.4
348227.1776,101.992,75.152,1009.245,26.25,2800.0,-306.25,62.32,-176.32,-494.0
348227.2276,103.639,76.128,1009.733,-35.0,3097.5,-472.5,60.8,-177.84,-486.4
348227.2776,99.064,72.956,1007.598,-148.75,3001.25,-945.0,62.32,-176.32,-486.4
348227.3276,100.894,73.932,1007.354,166.25,2852.5,-901.25,63.84,-165.68,-495.52
348227.3776,100.955,78.202,1009.916,227.5,2957.5,-673.75,68.4,-177.84,-474.24
348227.4276,98.576,82.472,1008.391,-35.0,3123.75,-743.75,63.84,-165.68,-489.44
348227.4776,97.905,83.265,1006.927,-726.25,2625.0,-630.0,48.64,-179.36,-501.6
348227.5276,102.968,73.078,1006.683,-1050.0,2861.25,-507.5,72.96,-167.2,-487.92
348227.5776,104.066,70.211,1009.245,-201.25,2590.0,-332.5,57.76,-171.76,-486.4
348227.6276,102.785,69.601,1008.574,218.75,2651.25,-533.75,59.28,-168.72,-486.4
348227.6776,102.114,72.956,1008.818,901.25,3368.75,-875.0,69.92,-165.68,-495.52
348227.7276,95.465,80.154,1009.001,446.25,3185.0,-1330.0,65.36,-183.92,-484.88
348227.7776,101.809,76.616,1007.964,-288.75,2651.25,-778.75,72.96,-164.16,-509.2
348227.8276,104.676,71.248,1007.842,105.0,3185.0,-350.0,44.08,-167.2,-495.52
348227.8776,96.319,76.067,1009.428,157.5,3141.25,-1146.25,65.36,-164.16,-481.84
348227.9276,100.223,75.884,1009.672,271.25,2633.75,-1076.25,56.24,-165.68,-475.76
348227.9776,100.528,76.982,1006.439,-105.0,2852.5,-306.25,62.32,-171.76,-497.04
348228.0276,103.944,72.59,1010.526,-306.25,2546.25,26.25,68.4,-179.36,-495.52
348228.0776,100.284,76.433,1006.927,43.75,3062.5,-533.75,47.12,-170.24,-483.36
348228.1276,100.162,76.128,1010.16,-603.75,2861.25,-630.0,66.88,-174.8,-480.32
348228.1778,100.04,71.248,1008.513,35.0,2826.25,-1102.5,50.16,-152.0,-497.04
348228.2276,103.883,73.749,1008.33,752.5,2878.75,-918.75,72.96,-180.88,-471.2
348228.2777,103.212,80.703,1009.672,-105.0,3438.75,-752.5,59.28,-164.16,-483.36
348228.3276,97.173,77.47,1005.585,-603.75,2817.5,-822.5,48.64,-176.32,-494.0
348228.3777,100.345,69.113,1007.476,-1050.0,2441.25,-516.25,66.88,-182.4,-486.4
348228.4276,102.419,65.209,1010.343,577.5,2808.75,-463.75,60.8,-171.76,-490.96
348228.4776,98.454,72.285,1009.428,866.25,2318.75,-1041.25,59.28,-165.68,-498.56
348228.5276,110.41,76.616,1007.049,472.5,3561.25,-962.5,69.92,-168.72,-486.4
348228.5776,95.648,80.52,1009.428,568.75,3272.5,-1207.5,51.68,-171.76,-481.84
348228.6276,104.249,77.043,1007.72,-376.25,2686.25,-1190.0,63.84,-168.72,-484.88
348228.6776,103.517,71.98,1009.367,700.0,3071.25,-700.0,66.88,-161.12,-498.56
348228.7276,99.003,78.873,1010.465,428.75,3176.25,-1417.5,71.44,-171.76,-492.48
348228.7776,97.783,74.603,1008.269,-17.5,2861.25,-1268.75,54.72,-177.84,-494.0
348228.8276,99.857,77.592,1006.073,350.0,2712.5,-516.25,53.2,-182.4,-492.48
348228.8776,98.881,78.69,1009.55,-1041.25,2695.0,35.0,62.32,-170.24,-489.44
348228.9276,102.419,68.808,1010.709,-577.5,2563.75,-848.75,72.96,-177.84,-483.36
348228.9776,103.334,68.93,1008.452,-271.25,2861.25,-726.25,63.84,-171.76,-489.44
348229.0276,104.615,72.346,1010.099,560.0,3578.75,-936.25,54.72,-170.24,-486.4
348229.0776,97.539,79.056,1009.489,-201.25,3762.5,-1793.75,48.64,-170.24,-481.84
348229.1276,99.918,72.651,1009.733,-245.0,3001.25,-796.25,69.92,-162.64,-489.44
348229.1776,99.979,71.187,1006.927,122.5,3167.5,-306.25,69.92,-164.16,-487.92
348229.2276,97.6,77.348,1009.367,288.75,2703.75,-586.25,62.32,-171.76,-503.12
348229.2776,106.872,73.383,1008.696,-210.0,2537.5,-481.25,51.68,-164.16,-513.76
348229.3276,102.48,78.446,1009.733,-402.5,3395.0,-463.75,59.28,-174.8,-483.36
348229.3776,97.417,71.431,1008.208,-131.25,2327.5,-612.5,62.32,-165.68,-484.88
348229.4276,107.238,72.285,1009.794,-428.75,3185.0,-516.25,59.28,-174.8,-478.8
348229.4776,101.199,73.627,1009.916,78.75,3211.25,-446.25,65.36,-180.88,-494.0
348229.5276,97.295,72.895,1010.16,-376.25,3141.25,-1137.5,66.88,-162.64,-486.4
348229.5776,99.003,73.505,1011.746,-122.5,3307.5,-857.5,65.36,-174.8,-487.92
348229.6276,99.003,71.858,1009.489,70.0,2607.5,-446.25,45.6,-177.84,-484.88
348229.6776,99.613,72.59,1008.818,-516.25,2791.25,-122.5,65.36,-180.88,-503.12
348229.7276,101.809,67.649,1007.781,393.75,2572.5,-367.5,65.36,-165.68,-484.88
348229.7776,103.151,72.468,1005.829,848.75,2835.0,-910.0,69.92,-162.64,-480.32
348229.8276,101.748,74.664,1007.232,1452.5,3010.0,-1225.0,45.6,-162.64,-495.52
348229.8776,97.539,79.3,1008.086,-358.75,3185.0,-866.25,53.2,-164.16,-474.24
348229.9276,96.075,71.919,1006.683,-796.25,3088.75,-463.75,72.96,-168.72,-495.52
348229.9776,94.001,70.516,1009.001,8.75,2668.75,-332.5,57.76,-174.8,-497.04
348230.0276,99.674,76.433,1010.77,-96.25,2520.0,-463.75,53.2,-185.44,-489.44
348230.0776,105.347,73.627,1005.646,498.75,2467.5,-446.25,63.84,-173.28,-483.36
348230.1276,96.441,75.884,1008.818,-210.0,2625.0,-595.0,48.64,-165.68,-475.76
348230.1776,102.114,72.956,1009.428,-245.0,2336.25,-831.25,65.36,-161.12,-504.64
348230.2276,105.652,74.359,1009.123,26.25,2922.5,-498.75,57.76,-153.52,-494.0
348230.2776,103.395,74.542,1008.635,157.5,3062.5,-1146.25,72.96,-176.32,-481.84
348230.3276,104.92,73.627,1006.805,-350.0,3220.0,-1146.25,50.16,-168.72,-494.0
348230.3776,99.186,70.821,1009.489,35.0,2957.5,-875.0,76.0,-159.6,-497.04
348230.4276,100.589,75.03,1005.89,-385.0,2931.25,-533.75,63.84,-167.2,-478.8
348230.4776,103.029,68.625,1010.343,-70.0,2870.0,-350.0,68.4,-180.88,-498.56
348230.5276,104.92,71.065,1005.951,892.5,2747.5,-367.5,48.64,-173.28,-500.08
348230.5776,108.336,72.468,1008.391,1216.25,3360.0,-910.0,62.32,-168.72,-495.52
348230.6276,96.258,76.128,1009.733,-105.0,3053.75,-1601.25,60.8,-170.24,-483.36
348230.6776,98.82,73.932,1004.914,-665.0,2992.5,-1295.0,50.16,-168.72,-480.32
348230.7276,96.502,71.126,1007.476,-271.25,2843.75,-175.0,62.32,-167.2,-484.88
348230.7776,99.003,70.882,1009.306,-385.0,2765.0,-481.25,63.84,-167.2,-490.96
348230.8276,106.323,71.797,1006.5,87.5,2616.25,-673.75,59.28,-170.24,-490.96
348230.8776,98.149,72.956,1010.16,96.25,3123.75,-735.0,56.24,-179.36,-498.56
348230.9276,97.051,74.603,1011.38,-210.0,2511.25,-848.75,74.48,-176.32,-483.36
348230.9776,107.543,71.858,1007.964,122.5,2773.75,-603.75,68.4,-168.72,-486.4
348231.0276,103.395,69.662,1008.33,245.0,3246.25,-691.25,65.36,-179.36,-484.88
348231.0776,98.698,75.884,1008.635,-262.5,2712.5,-1076.25,65.36,-170.24,-490.96
348231.1276,102.358,70.211,1007.598,-271.25,2870.0,-630.0,69.92,-167.2,-497.04
348231.1776,96.685,70.943,1009.123,-87.5,2817.5,-183.75,51.68,-177.84,-500.08
348231.2276,103.639,69.174,1010.892,271.25,2511.25,-358.75,53.2,-165.68,-487.92
348231.2776,107.665,70.089,1006.683,402.5,2668.75,26.25,51.68,-182.4,-478.8
348231.3278,104.188,75.457,1008.513,918.75,3438.75,-805.0,74.48,-173.28,-481.84
348231.3776,100.284,76.006,1009.306,-586.25,2843.75,-1531.25,50.16,-167.2,-498.56
348231.4277,105.286,70.638,1006.683,-717.5,2896.25,-936.25,69.92,-164.16,-489.44
348231.4776,98.698,64.294,1008.818,-297.5,3027.5,-148.75,56.24,-165.68,-490.96
348231.5277,100.772,67.161,1009.428,201.25,2826.25,-673.75,63.84,-162.64,-483.36
348231.5776,109.556,76.067,1010.221,778.75,2922.5,-647.5,59.28,-164.16,-501.6
348231.6276,96.746,74.237,1010.953,87.5,2852.5,-708.75,51.68,-176.32,-474.24
348231.6776,99.491,75.762,1004.975,-428.75,2380.0,-717.5,54.72,-180.88,-483.36
348231.7276,106.689,68.137,1010.038,0.0,3027.5,-192.5,69.92,-174.8,-498.56
348231.7776,103.029,70.028,1010.831,17.5,3080.0,-551.25,60.8,-179.36,-483.36
348231.8276,101.992,68.625,1010.953,-105.0,2782.5,-1531.25,47.12,-170.24,-495.52
348231.8776,101.504,70.333,1008.147,-140.0,2905.0,-350.0,48.64,-173.28,-484.88
348231.9276,98.881,70.943,1008.33,-78.75,2808.75,-350.0,71.44,-171.76,-487.92
348231.9776,105.042,66.795,1010.587,43.75,2686.25,-455.0,66.88,-165.68,-481.84
348232.0276,107.055,68.198,1005.28,568.75,2896.25,-227.5,59.28,-152.0,-494.0
348232.0776,104.371,76.677,1009.977,586.25,3351.25,-1268.75,62.32,-153.52,-495.52
348232.1276,99.979,73.81,1006.561,-262.5,2808.75,-1382.5,50.16,-170.24,-487.92
348232.1776,98.393,68.686,1007.049,-157.5,2931.25,-743.75,59.28,-158.08,-490.96
348232.2276,103.578,69.418,1011.624,122.5,2835.0,-122.5,71.44,-177.84,-495.52
348232.2776,101.565,68.686,1007.903,52.5,3036.25,-752.5,68.4,-164.16,-489.44
348232.3276,106.384,74.42,1009.367,201.25,3342.5,-892.5,65.36,-177.84,-481.84
348232.3776,95.953,75.762,1008.452,271.25,2660.0,-857.5,60.8,-167.2,-494.0
348232.4276,103.7,73.566,1009.611,-70.0,2327.5,-665.0,57.76,-176.32,-500.08
348232.4776,106.628,72.956,1007.415,-122.5,2913.75,-78.75,66.88,-179.36,-494.0
348232.5276,103.273,72.346,1009.611,183.75,3027.5,-603.75,72.96,-176.32,-494.0
348232.5776,101.809,73.139,1008.025,-70.0,2747.5,-1190.0,53.2,-159.6,-498.56
348232.6276,103.09,71.736,1008.696,-61.25,2668.75,-918.75,63.84,-161.12,-487.92
348232.6776,104.493,74.237,1008.574,-446.25,2703.75,-367.5,65.36,-179.36,-497.04
348232.7276,108.397,70.577,1008.513,-8.75,3307.5,-673.75,56.24,-170.24,-487.92
348232.7776,106.384,70.333,1008.33,262.5,3167.5,-857.5,57.76,-173.28,-506.16
348232.8276,108.336,77.714,1008.33,857.5,3263.75,-1540.0,65.36,-171.76,-495.52
348232.8776,100.467,74.786,1009.55,0.0,3325.0,-1566.25,48.64,-174.8,-495.52
348232.9276,99.43,70.638,1009.062,-183.75,2826.25,-691.25,53.2,-165.68,-500.08
348232.9776,102.541,70.15,1008.696,253.75,2948.75,-43.75,72.96,-167.2,-484.88
348233.0276,101.992,74.603,1006.866,227.5,2756.25,-857.5,54.72,-174.8,-486.4
348233.0776,105.713,77.043,1008.147,78.75,3062.5,-840.0,65.36,-170.24,-494.0
348233.1276,101.565,74.725,1007.171,-358.75,3281.25,-446.25,66.88,-162.64,-483.36
348233.1776,97.478,74.664,1009.245,-306.25,2695.0,-953.75,69.92,-168.72,-481.84
348233.2276,107.726,69.235,1010.892,105.0,3220.0,-700.0,62.32,-168.72,-494.0
348233.2776,103.273,73.444,1007.72,595.0,3158.75,-980.0,56.24,-167.2,-495.52
348233.3276,99.674,75.823,1008.33,227.5,2747.5,-1330.0,62.32,-174.8,-494.0
348233.3776,103.7,74.664,1006.927,-35.0,2887.5,-866.25,62.32,-174.8,-487.92
348233.4276,98.149,73.261,1009.672,-271.25,2633.75,-131.25,60.8,-183.92,-494.0
348233.4776,104.249,69.479,1010.16,0.0,2520.0,-148.75,60.8,-168.72,-486.4
348233.5276,104.493,68.93,1009.306,306.25,2563.75,-341.25,65.36,-162.64,-498.56
348233.5776,110.41,76.128,1008.269,988.75,2931.25,-883.75,50.16,-174.8,-498.56
348233.6276,100.101,79.056,1008.147,-52.5,3298.75,-1198.75,71.44,-177.84,-490.96
348233.6776,100.833,76.616,1007.354,-498.75,2616.25,-717.5,44.08,-170.24,-478.8
348233.7276,104.981,68.747,1008.818,-70.0,2852.5,-87.5,60.8,-167.2,-495.52
348233.7776,104.005,72.956,1009.55,498.75,2738.75,-481.25,54.72,-174.8,-504.64
348233.8276,110.41,73.444,1007.903,1382.5,2143.75,-831.25,53.2,-162.64,-503.12
348233.8776,104.859,78.202,1008.086,997.5,2957.5,-603.75,62.32,-179.36,-487.92
348233.9276,105.774,78.385,1005.158,332.5,2590.0,-236.25,66.88,-165.68,-486.4
348233.9776,111.508,79.422,1007.72,105.0,2870.0,-385.0,53.2,-170.24,-494.0
348234.0276,110.471,79.971,1006.439,236.25,3377.5,-393.75,62.32,-161.12,-481.84
348234.0776,101.87,76.25,1007.049,-210.0,3465.0,-1242.5,69.92,-168.72,-475.76
348234.1276,100.528,78.385,1006.866,-210.0,2931.25,-1295.0,48.64,-170.24,-484.88
348234.1776,106.75,70.577,1008.086,-420.0,3307.5,-463.75,45.6,-176.32,-504.64
348234.2276,99.43,74.054,1010.038,-551.25,3447.5,-218.75,76.0,-179.36,-494.0
348234.2776,104.615,70.577,1008.208,577.5,2878.75,-586.25,65.36,-174.8,-486.4
348234.3276,109.007,80.886,1007.232,1102.5,3325.0,-761.25,59.28,-168.72,-492.48
348234.3776,103.761,85.339,1004.426,0.0,3718.75,-1268.75,60.8,-171.76,-495.52
348234.4276,103.944,76.25,1004.426,-831.25,3202.5,-953.75,60.8,-177.84,-497.04
348234.4776,104.798,73.932,1009.672,-507.5,3605.0,-621.25,68.4,-167.2,-498.56
348234.5276,96.685,76.067,1010.953,262.5,3211.25,-1032.5,68.4,-162.64,-489.44
348234.5777,104.188,77.897,1008.696,332.5,2423.75,-630.0,59.28,-183.92,-494.0
348234.6276,105.53,79.788,1008.94,245.0,3640.0,-52.5,74.48,-173.28,-478.8
348234.6777,95.526,77.958,1007.964,-577.5,2275.0,-621.25,56.24,-171.76,-495.52
348234.7276,106.018,79.544,1007.232,-446.25,2493.75,-446.25,65.36,-170.24,-484.88
348234.7776,103.09,74.298,1009.428,-437.5,3132.5,-43.75,62.32,-185.44,-497.04
348234.8276,102.297,75.579,1008.818,-708.75,2940.0,-1295.0,60.8,-170.24,-487.92
348234.8776,103.395,73.749,1008.147,-560.0,2878.75,-1163.75,51.68,-162.64,-498.56
348234.9276,100.101,70.882,1007.842,-367.5,3202.5,-560.0,59.28,-170.24,-490.96
348234.9776,98.82,73.688,1006.866,-376.25,2712.5,-420.0,62.32,-167.2,-494.0
348235.0276,105.469,69.235,1009.794,-385.0,2511.25,-175.0,53.2,-170.24,-497.04
348235.0776,107.055,69.662,1008.147,717.5,2721.25,-743.75,59.28,-171.76,-495.52
348235.1276,105.957,75.945,1006.927,770.0,3193.75,-822.5,50.16,-177.84,-474.24
348235.1776,98.576,76.677,1008.513,218.75,3010.0,-1041.25,62.32,-173.28,-486.4
348235.2276,102.358,75.213,1006.866,-831.25,2826.25,-910.0,66.88,-174.8,-489.44
348235.2776,103.395,67.466,1010.953,-105.0,3150.0,-315.0,66.88,-168.72,-480.32
348235.3276,102.114,71.187,1007.903,288.75,2747.5,-350.0,63.84,-176.32,-484.88
348235.3776,104.493,73.566,1009.062,87.5,2598.75,-665.0,59.28,-167.2,-478.8
348235.4276,101.443,78.507,1009.855,542.5,3106.25,-542.5,71.44,-176.32,-495.52
348235.4776,100.711,78.873,1007.11,-630.0,2765.0,-533.75,68.4,-173.28,-478.8
348235.5276,106.811,70.76,1009.672,-306.25,2808.75,-525.0,62.32,-182.4,-497.04
348235.5776,108.336,70.577,1008.94,-280.0,3403.75,-315.0,56.24,-168.72,-504.64
348235.6276,101.321,73.017,1009.245,341.25,3115.0,-962.5,59.28,-161.12,-503.12
348235.6776,104.676,70.516,1009.916,140.0,2791.25,-656.25,63.84,-161.12,-501.6
348235.7276,102.419,71.004,1008.391,472.5,3001.25,-743.75,59.28,-167.2,-487.92
348235.7776,108.824,72.102,1009.062,-8.75,2485.0,-988.75,71.44,-176.32,-487.92
348235.8276,104.249,71.065,1009.733,122.5,2581.25,-490.0,69.92,-174.8,-480.32
348235.8776,103.517,68.747,1008.391,140.0,3097.5,-148.75,65.36,-170.24,-500.08
348235.9276,108.397,74.42,1011.563,910.0,3150.0,-883.75,68.4,-159.6,-494.0
348235.9776,99.308,81.069,1008.696,533.75,3587.5,-1811.25,62.32,-170.24,-478.8
348236.0276,100.345,76.677,1007.476,-166.25,3123.75,-1583.75,57.76,-171.76,-494.0
348236.0776,100.65,77.531,1009.855,-87.5,3088.75,-796.25,60.8,-179.36,-494.0
348236.1276,102.175,71.736,1007.598,35.0,2677.5,-87.5,77.52,-182.4,-481.84
348236.1776,107.299,77.836,1009.123,-17.5,2406.25,-140.0,68.4,-170.24,-495.52
348236.2276,106.506,77.714,1003.877,-166.25,3071.25,-78.75,57.76,-170.24,-500.08
348236.2776,101.992,74.664,1009.611,-700.0,2765.0,-691.25,59.28,-153.52,-494.0
348236.3276,104.615,68.503,1008.574,-148.75,2485.0,-831.25,63.84,-180.88,-487.92
348236.3776,106.018,73.688,1009.611,52.5,3071.25,-498.75,47.12,-162.64,-504.64
348236.4276,103.761,73.932,1010.282,586.25,2896.25,-1128.75,63.84,-165.68,-472.72
348236.4776,103.456,75.945,1011.014,-8.75,2721.25,-866.25,65.36,-165.68,-486.4
348236.5276,106.201,74.481,1008.208,166.25,2983.75,-271.25,50.16,-173.28,-487.92
348236.5776,102.602,73.017,1005.89,17.5,2808.75,-586.25,56.24,-177.84,-500.08
348236.6276,106.567,72.895,1011.624,551.25,2668.75,-962.5,60.8,-168.72,-497.04
348236.6776,106.018,73.688,1009.916,533.75,3097.5,-953.75,50.16,-176.32,-466.64
348236.7276,103.273,77.592,1007.781,1496.25,2887.5,-892.5,42.56,-167.2,-481.84
348236.7776,104.371,85.461,1006.988,630.0,3710.0,-1312.5,63.84,-167.2,-504.64
348236.8276,94.794,81.069,1007.964,70.0,2931.25,-1391.25,60.8,-156.56,-490.96
348236.8776,107.726,78.446,1005.89,-262.5,2913.75,-630.0,63.84,-177.84,-490.96
348236.9276,104.31,74.725,1008.208,-140.0,3062.5,-428.75,59.28,-168.72,-495.52
348236.9776,99.308,77.348,1011.136,96.25,2598.75,-1426.25,66.88,-177.84,-490.96
348237.0276,109.373,83.814,1004.548,-166.25,3255.0,-752.5,77.52,-174.8,-480.32
348237.0776,103.09,81.74,1008.086,-472.5,3491.25,-568.75,53.2,-182.4,-497.04
348237.1276,106.323,77.836,1003.633,-332.5,2441.25,-840.0,62.32,-168.72,-501.6
348237.1776,109.678,75.03,1005.28,-280.0,2782.5,-656.25,57.76,-170.24,-484.88
348237.2276,102.724,74.42,1006.866,-113.75,3010.0,-945.0,51.68,-182.4,-484.88
348237.2776,103.395,77.47,1006.378,-437.5,2590.0,-1015.0,69.92,-182.4,-483.36
348237.3276,105.347,73.688,1009.306,-131.25,2887.5,-708.75,66.88,-182.4,-487.92
348237.3776,102.907,77.897,1009.367,-472.5,2835.0,-385.0,74.48,-161.12,-500.08
348237.4276,106.567,74.481,1009.55,-525.0,2677.5,-568.75,48.64,-179.36,-490.96
348237.4776,107.36,73.993,1009.489,385.0,2703.75,-892.5,54.72,-180.88,-489.44
348237.5276,109.861,79.971,1010.648,350.0,3053.75,-910.0,62.32,-164.16,-486.4
348237.5776,104.371,82.594,1009.306,-227.5,3832.5,-1583.75,68.4,-173.28,-484.88
348237.6276,101.565,74.725,1005.219,-341.25,2336.25,-953.75,50.16,-170.24,-497.04
348237.6776,108.824,72.895,1007.171,-148.75,2791.25,-560.0,60.8,-165.68,-483.36
348237.7285,101.138,70.394,1010.038,805.0,2756.25,-708.75,63.84,-173.28,-483.36
348237.7776,111.203,79.849,1004.975,-26.25,2607.5,-726.25,63.84,-180.88,-478.8
348237.8277,112.972,84.241,1004.67,-166.25,4077.5,-673.75,53.2,-176.32,-495.52
348237.8776,101.382,79.544,1008.391,-393.75,2651.25,-1023.75,51.68,-168.72,-477.28
348237.9276,104.432,76.372,1006.927,-428.75,2502.5,-1023.75,66.88,-168.72,-487.92
348237.9776,111.63,78.141,1005.89,26.25,3543.75,-113.75,59.28,-174.8,-497.04
348238.0276,103.151,77.653,1005.158,-297.5,3027.5,-1041.25,51.68,-171.76,-486.4
348238.0776,106.567,74.786,1007.842,-367.5,2817.5,-1128.75,54.72,-170.24,-472.72
348238.1276,104.737,70.455,1009.672,-673.75,3333.75,-472.5,57.76,-174.8,-481.84
348238.1776,99.064,65.026,1012.234,-131.25,2703.75,-490.0,54.72,-165.68,-486.4
348238.2276,108.58,71.614,1010.282,1295.0,2380.0,-455.0,62.32,-162.64,-477.28
348238.2776,112.423,78.202,1003.694,1723.75,3220.0,-140.0,53.2,-168.72,-486.4
348238.3276,102.175,87.23,1007.232,332.5,3517.5,-1347.5,59.28,-168.72,-481.84
348238.3776,106.201,79.605,1005.951,-805.0,2677.5,-717.5,50.16,-170.24,-495.52
348238.4276,106.689,70.882,1008.025,-525.0,3325.0,-192.5,66.88,-168.72,-478.8
348238.4776,101.687,74.603,1010.343,393.75,2940.0,-673.75,59.28,-171.76,-489.44
348238.5276,101.016,76.372,1007.598,787.5,2170.0,-813.75,57.76,-179.36,-492.48
348238.5776,111.569,84.729,1008.208,-113.75,3666.25,-183.75,66.88,-177.84,-480.32
348238.6276,103.456,83.753,1004.121,-980.0,2747.5,-1085.0,51.68,-177.84,-492.48
348238.6776,108.702,72.956,1009.55,-927.5,2773.75,-1277.5,59.28,-168.72,-494.0
348238.7276,108.275,71.248,1006.683,-262.5,3395.0,183.75,66.88,-176.32,-477.28
348238.7776,102.968,75.762,1009.977,183.75,3421.25,-140.0,63.84,-162.64,-471.2
348238.8276,103.151,77.47,1006.317,-227.5,3045.0,-1365.0,51.68,-165.68,-486.4
348238.8776,105.042,75.274,1006.256,-533.75,3246.25,-1207.5,60.8,-170.24,-490.96
348238.9276,102.602,73.688,1009.55,-857.5,3053.75,-1050.0,68.4,-170.24,-494.0
348238.9776,105.286,68.747,1010.465,-157.5,2966.25,-236.25,51.68,-161.12,-492.48
348239.0276,106.506,70.272,1010.16,131.25,3482.5,-236.25,59.28,-173.28,-489.44
348239.0776,100.162,80.52,1008.94,551.25,3640.0,-1461.25,63.84,-162.64,-484.88
348239.1276,99.613,77.897,1006.134,-735.0,3018.75,-1373.75,68.4,-171.76,-483.36
348239.1776,104.005,72.407,1006.622,-262.5,3333.75,-813.75,56.24,-182.4,-483.36
348239.2276,99.674,73.871,1009.489,516.25,2572.5,-726.25,59.28,-173.28,-506.16
348239.2776,103.273,76.921,1008.452,428.75,2222.5,-813.75,79.04,-173.28,-472.72
348239.3276,104.676,76.982,1007.293,245.0,3421.25,-78.75,59.28,-174.8,-481.84
348239.3776,96.38,78.08,1007.903,-218.75,2318.75,-962.5,51.68,-174.8,-500.08
348239.4276,104.188,72.773,1007.72,-183.75,2555.0,-717.5,57.76,-168.72,-483.36
348239.4776,105.591,72.651,1008.208,0.0,3123.75,-96.25,62.32,-176.32,-483.36
348239.5276,104.676,76.86,1009.794,183.75,2922.5,-665.0,56.24,-161.12,-494.0
348239.5776,103.944,74.359,1002.108,-437.5,2800.0,-700.0,48.64,-173.28,-486.4
348239.6276,104.859,70.882,1006.744,-297.5,2502.5,-367.5,63.84,-170.24,-486.4
348239.6776,101.931,69.174,1010.831,-87.5,2537.5,-183.75,66.88,-162.64,-475.76
348239.7276,108.946,70.089,1008.94,131.25,2660.0,201.25,69.92,-174.8,-506.16
348239.7776,106.994,70.333,1011.929,560.0,3036.25,96.25,62.32,-173.28,-501.6
348239.8276,101.809,83.631,1010.099,472.5,3438.75,-1155.0,51.68,-173.28,-475.76
348239.8776,102.968,77.409,1005.28,-350.0,2581.25,-1636.25,50.16,-173.28,-494.0
348239.9276,105.713,72.59,1007.171,-350.0,3202.5,-288.75,50.16,-168.72,-475.76
348239.9776,104.859,71.797,1010.221,700.0,2616.25,-332.5,63.84,-180.88,-492.48
348240.0276,107.665,77.897,1007.842,603.75,2345.0,-525.0,65.36,-162.64,-489.44
348240.0776,105.408,77.348,1006.378,297.5,3237.5,-420.0,57.76,-180.88,-490.96
348240.1276,102.358,77.836,1010.038,-227.5,2791.25,-761.25,65.36,-155.04,-487.92
348240.1776,105.469,73.688,1007.293,-8.75,3036.25,-927.5,63.84,-177.84,-465.12
348240.2276,106.872,75.579,1008.635,-227.5,3115.0,-656.25,59.28,-171.76,-490.96
348240.2776,103.944,73.2,1007.659,-113.75,3185.0,-848.75,63.84,-162.64,-484.88
348240.3276,101.199,74.847,1008.757,61.25,2563.75,-962.5,77.52,-158.08,-497.04
348240.3776,108.641,77.592,1006.378,-402.5,2878.75,-332.5,51.68,-176.32,-489.44
348240.4276,104.005,69.174,1009.55,-253.75,2730.0,-105.0,62.32,-162.64,-490.96
348240.4776,111.264,68.442,1008.94,122.5,2878.75,-743.75,66.88,-176.32,-477.28
348240.5276,109.007,71.187,1008.818,787.5,3106.25,-778.75,54.72,-174.8,-486.4
348240.5776,101.87,81.252,1010.343,218.75,3202.5,-1312.5,53.2,-164.16,-489.44
348240.6276,105.164,74.908,1007.476,-376.25,2896.25,-1120.0,69.92,-168.72,-492.48
348240.6776,102.175,68.93,1006.744,-341.25,3307.5,-402.5,76.0,-174.8,-477.28
348240.7276,101.87,71.797,1008.391,831.25,2467.5,-822.5,47.12,-176.32,-494.0
348240.7776,107.604,79.727,1011.807,700.0,2738.75,-1102.5,51.68,-171.76,-494.0
348240.8276,101.626,79.361,1010.16,481.25,3106.25,-962.5,57.76,-164.16,-489.44
348240.8778,102.419,78.446,1007.354,52.5,2625.0,-1015.0,50.16,-179.36,-480.32
348240.9276,110.105,75.03,1007.232,157.5,2598.75,-1155.0,48.64,-171.76,-495.52
348240.9777,107.787,75.091,1007.171,437.5,3097.5,-1216.25,45.6,-170.24,-483.36
348241.0276,106.262,80.093,1006.988,-350.0,2887.5,-1365.0,62.32,-180.88,-484.88
348241.0776,102.785,78.202,1004.365,-367.5,2931.25,-630.0,47.12,-176.32,-492.48
348241.1276,102.846,76.494,1008.025,-813.75,2520.0,-192.5,71.44,-165.68,-490.96
348241.1776,109.129,71.492,1008.269,-323.75,2695.0,-131.25,59.28,-164.16,-489.44
348241.2276,108.641,74.908,1007.476,367.5,2738.75,70.0,54.72,-168.72,-474.24
348241.2776,107.787,80.215,1008.574,612.5,3010.0,-988.75,51.68,-174.8,-490.96
348241.3276,106.14,76.25,1005.89,-743.75,2616.25,-358.75,53.2,-183.92,-492.48
348241.3776,109.495,66.673,1005.768,-533.75,3193.75,936.25,54.72,-177.84,-484.88
348241.4276,101.199,68.625,1010.892,1172.5,2336.25,-428.75,57.76,-159.6,-490.96
348241.4776,103.517,73.627,1011.441,481.25,2012.5,-1592.5,62.32,-165.68,-498.56
348241.5276,114.558,83.631,1006.439,1181.25,3132.5,-1006.25,76.0,-170.24,-503.12
348241.5776,104.31,82.106,1005.463,-8.75,2178.75,-393.75,59.28,-182.4,-474.24
348241.6276,114.131,78.263,1005.524,26.25,2397.5,-525.0,57.76,-171.76,-486.4
348241.6776,112.972,77.47,1006.927,-52.5,3228.75,-525.0,57.76,-153.52,-495.52
348241.7276,110.471,76.372,1008.452,-201.25,3176.25,-1076.25,51.68,-171.76,-489.44
348241.7776,105.774,78.141,1004.243,113.75,2861.25,-1688.75,72.96,-168.72,-480.32
348241.8276,109.495,78.263,1007.049,-218.75,2738.75,-971.25,57.76,-162.64,-504.64
348241.8776,112.301,78.446,1005.707,-70.0,2957.5,-1067.5,71.44,-185.44,-504.64
348241.9276,112.057,76.189,1004.67,708.75,2493.75,-822.5,57.76,-171.76,-490.96
348241.9776,114.985,83.143,1006.439,603.75,3465.0,-980.0,50.16,-174.8,-487.92
348242.0276,102.114,76.616,1009.367,-1233.75,3272.5,-1382.5,54.72,-177.84,-506.16
348242.0776,108.519,67.039,1006.378,-665.0,3465.0,-866.25,54.72,-170.24,-490.96
348242.1276,105.347,69.54,1010.099,332.5,3517.5,-385.0,54.72,-174.8,-487.92
348242.1776,101.809,79.422,1012.234,280.0,3220.0,-700.0,51.68,-179.36,-472.72
348242.2276,110.898,78.873,1008.086,971.25,3045.0,-717.5,65.36,-162.64,-490.96
348242.2776,97.417,79.666,1007.537,-183.75,2983.75,-717.5,59.28,-186.96,-469.68
348242.3276,105.286,73.932,1006.012,236.25,2686.25,-700.0,72.96,-162.64,-474.24
348242.3776,109.068,78.385,1007.415,-183.75,3088.75,-183.75,47.12,-179.36,-487.92
348242.4276,105.469,77.043,1009.794,-341.25,3115.0,-822.5,48.64,-159.6,-487.92
348242.4776,105.835,76.799,1006.866,-96.25,2975.0,-1050.0,51.68,-168.72,-472.72
348242.5276,101.565,73.505,1004.914,-630.0,3220.0,-411.25,47.12,-174.8,-492.48
348242.5776,101.199,74.298,1010.587,-463.75,2493.75,-455.0,50.16,-171.76,-503.12
348242.6276,108.031,65.27,1008.94,-376.25,2887.5,-61.25,72.96,-168.72,-490.96
348242.6776,109.8,76.921,1008.086,892.5,3246.25,-420.0,51.68,-180.88,-486.4
348242.7276,103.09,78.568,1009.916,-315.0,3263.75,-761.25,47.12,-168.72,-494.0
348242.7776,106.628,69.54,1009.184,-271.25,3018.75,-918.75,59.28,-165.68,-489.44
348242.8276,106.018,73.139,1008.94,61.25,3403.75,-822.5,62.32,-182.4,-481.84
348242.8776,104.127,74.481,1010.16,656.25,2975.0,-1155.0,53.2,-173.28,-498.56
348242.9276,110.959,80.215,1004.182,971.25,3088.75,-393.75,53.2,-171.76,-478.8
348242.9776,101.321,81.13,1007.598,551.25,3386.25,-253.75,66.88,-171.76,-481.84
348243.0276,105.042,79.544,1006.317,-253.75,2511.25,-1015.0,51.68,-168.72,-494.0
348243.0776,110.227,78.873,1006.5,-385.0,3027.5,-1023.75,48.64,-185.44,-483.36
348243.1276,104.554,78.812,1008.574,-140.0,3456.25,-778.75,63.84,-173.28,-495.52
348243.1776,100.223,76.189,1008.818,-1128.75,3036.25,-1085.0,66.88,-182.4,-489.44
348243.2276,105.286,70.516,1008.391,-490.0,2852.5,-630.0,62.32,-171.76,-480.32
348243.2776,100.589,66.429,1009.855,-621.25,2800.0,-262.5,57.76,-168.72,-501.6
348243.3276,103.456,70.699,1010.404,-105.0,2677.5,-306.25,53.2,-174.8,-495.52
348243.3776,108.336,65.941,1009.794,525.0,3307.5,-455.0,60.8,-168.72,-480.32
348243.4276,104.371,81.313,1007.354,420.0,3307.5,-857.5,66.88,-162.64,-486.4
348243.4776,103.456,76.311,1007.293,-306.25,3071.25,-1111.25,66.88,-168.72,-494.0
348243.5276,103.273,68.625,1006.073,-157.5,3272.5,-857.5,69.92,-174.8,-478.8
348243.5776,105.347,70.577,1009.733,673.75,2800.0,-603.75,59.28,-167.2,-489.44
348243.6276,101.26,77.287,1005.341,700.0,2695.0,-630.0,60.8,-176.32,-497.04
348243.6776,103.273,80.886,1009.611,350.0,3080.0,-420.0,62.32,-168.72,-489.44
348243.7276,98.759,79.3,1007.232,8.75,2835.0,-612.5,66.88,-167.2,-481.84
348243.7776,105.103,77.043,1008.452,-411.25,2572.5,-778.75,53.2,-179.36,-503.12
348243.8276,104.737,71.797,1007.903,96.25,2703.75,-481.25,60.8,-162.64,-501.6
348243.8776,107.97,77.653,1007.049,26.25,2817.5,-481.25,69.92,-168.72,-500.08
348243.9276,105.53,76.006,1007.354,-516.25,2511.25,-393.75,59.28,-168.72,-494.0
348243.9776,103.944,73.932,1007.659,-551.25,2791.25,-481.25,56.24,-162.64,-497.04
348244.0276,106.445,68.991,1007.293,-385.0,2721.25,-498.75,62.32,-174.8,-494.0
348244.0776,109.251,66.49,1009.001,131.25,2808.75,-463.75,65.36,-173.28,-480.32
348244.1278,110.898,71.309,1007.659,498.75,3211.25,-516.25,50.16,-177.84,-507.68
348244.1776,103.273,82.655,1007.842,420.0,3876.25,-1181.25,45.6,-168.72,-490.96
348244.2277,106.384,79.544,1007.171,122.5,2388.75,-962.5,68.4,-162.64,-481.84
348244.2776,103.761,74.359,1005.341,-131.25,3106.25,-148.75,50.16,-176.32,-487.92
348244.3276,102.358,75.335,1009.733,183.75,2633.75,-297.5,50.16,-176.32,-495.52
348244.3776,108.58,76.86,1007.598,-35.0,2782.5,-612.5,60.8,-177.84,-497.04
348244.4276,107.36,81.435,1007.537,-350.0,3272.5,166.25,65.36,-162.64,-495.52
348244.4776,102.663,77.348,1008.696,-262.5,3027.5,-647.5,57.76,-176.32,-489.44
348244.5276,108.336,74.176,1006.988,-700.0,2905.0,-708.75,38.0,-168.72,-486.4
348244.5776,105.957,73.993,1008.574,-140.0,3202.5,-656.25,63.84,-170.24,-477.28
348244.6276,102.724,76.799,1009.001,-560.0,2730.0,-1041.25,65.36,-170.24,-490.96
348244.6776,105.713,73.81,1008.696,-542.5,2607.5,-752.5,53.2,-167.2,-480.32
348244.7276,106.689,74.481,1008.452,-682.5,2511.25,-96.25,74.48,-174.8,-495.52
348244.7776,106.323,68.259,1007.171,-481.25,2450.0,-603.75,63.84,-174.8,-481.84
348244.8276,108.458,66.795,1007.049,-122.5,2458.75,-752.5,65.36,-162.64,-494.0
348244.8776,111.935,70.028,1006.378,638.75,3246.25,-1058.75,59.28,-164.16,-494.0
348244.9276,105.957,76.372,1007.964,-210.0,3473.75,-1391.25,60.8,-159.6,-489.44
348244.9776,103.334,71.431,1007.476,-376.25,2590.0,-717.5,66.88,-164.16,-494.0
348245.0276,106.201,65.575,1007.293,297.5,2791.25,-17.5,66.88,-164.16,-494.0
348245.0776,105.286,68.747,1011.746,1303.75,2318.75,-218.75,57.76,-171.76,-498.56
348245.1276,113.033,74.359,1006.744,1163.75,2283.75,-210.0,60.8,-171.76,-486.4
348245.1776,107.543,77.714,1007.415,1146.25,3150.0,-148.75,51.68,-177.84,-478.8
348245.2276,108.702,78.69,1006.927,551.25,2152.5,-612.5,71.44,-173.28,-492.48
348245.2776,113.338,76.555,1006.744,332.5,2765.0,-910.0,65.36,-180.88,-487.92
348245.3276,108.946,80.459,1008.696,551.25,2826.25,-726.25,51.68,-176.32,-501.6
348245.3776,108.397,81.618,1004.914,341.25,2677.5,-1085.0,59.28,-168.72,-490.96
348245.4276,107.848,81.008,1004.548,-280.0,2808.75,-857.5,56.24,-180.88,-472.72
348245.4776,105.591,77.287,1004.853,-271.25,2703.75,-700.0,63.84,-170.24,-477.28
348245.5276,110.227,76.25,1004.365,-35.0,2756.25,-586.25,53.2,-170.24,-495.52
348245.5776,109.556,75.579,1005.158,157.5,3150.0,-621.25,57.76,-176.32,-484.88
348245.6276,112.606,75.762,1007.232,-157.5,3395.0,-1321.25,66.88,-171.76,-498.56
348245.6776,106.872,72.956,1010.831,-385.0,3176.25,-1260.0,45.6,-158.08,-478.8
348245.7276,108.702,70.15,1007.476,595.0,3377.5,-927.5,47.12,-168.72,-489.44
348245.7776,102.175,72.59,1008.635,665.0,3412.5,-1181.25,62.32,-170.24,-487.92
348245.8276,104.249,74.42,1010.77,1671.25,2791.25,-1216.25,68.4,-179.36,-494.0
348245.8776,110.41,90.707,1005.402,848.75,4086.25,-840.0,66.88,-176.32,-490.96
348245.9276,99.369,88.938,1006.622,17.5,3228.75,-901.25,53.2,-179.36,-489.44
348245.9776,109.922,83.082,1004.914,-358.75,2940.0,-717.5,65.36,-180.88,-492.48
348246.0276,107.726,75.152,1007.72,455.0,3368.75,-481.25,57.76,-179.36,-489.44
348246.0776,104.798,79.239,1007.781,945.0,3097.5,-1225.0,60.8,-176.32,-519.84
348246.1276,103.09,83.814,1008.635,612.5,3307.5,-1120.0,63.84,-162.64,-483.36
348246.1776,101.504,85.4,1003.572,52.5,2975.0,-796.25,69.92,-177.84,-463.6
348246.2276,102.114,80.215,1007.171,-96.25,2581.25,-113.75,54.72,-168.72,-484.88
348246.2776,106.75,78.263,1007.659,-35.0,2423.75,157.5,50.16,-171.76,-509.2
348246.3276,111.142,78.324,1008.025,1120.0,2896.25,8.75,72.96,-173.28,-495.52
348246.3776,103.944,86.62,1008.452,743.75,3211.25,-735.0,63.84,-171.76,-486.4
348246.4276,105.713,83.753,1005.768,70.0,3027.5,-945.0,59.28,-171.76,-501.6
348246.4776,106.323,81.984,1008.086,-245.0,3246.25,-770.0,60.8,-177.84,-498.56
348246.5276,102.419,83.082,1008.147,446.25,2852.5,-778.75,71.44,-182.4,-489.44
348246.5776,105.103,85.461,1008.269,323.75,2607.5,-560.0,51.68,-165.68,-495.52
348246.6276,108.031,89.121,1007.049,227.5,3211.25,-113.75,66.88,-173.28,-497.04
348246.6776,101.321,86.925,1009.672,-323.75,2353.75,-341.25,79.04,-182.4,-486.4
348246.7276,109.434,86.01,1005.402,-271.25,2511.25,-70.0,54.72,-176.32,-480.32
348246.7776,110.837,83.57,1005.28,-656.25,3080.0,288.75,60.8,-161.12,-498.56
348246.8276,104.188,82.716,1007.598,-323.75,3018.75,-621.25,50.16,-173.28,-498.56
348246.8776,106.14,80.825,1007.293,-708.75,2931.25,-787.5,57.76,-176.32,-492.48
348246.9276,107.421,81.679,1006.988,-708.75,2940.0,-227.5,69.92,-182.4,-494.0
348246.9776,104.859,76.555,1011.136,-481.25,2415.0,43.75,60.8,-173.28,-506.16
348247.0276,106.994,74.664,1008.391,-463.75,2695.0,-43.75,45.6,-164.16,-492.48
348247.0776,113.948,77.714,1007.232,1067.5,2940.0,-280.0,59.28,-179.36,-480.32
348247.1276,108.031,87.596,1006.561,113.75,3587.5,-1050.0,53.2,-162.64,-492.48
348247.1776,106.262,80.642,1006.012,-735.0,3360.0,-1470.0,63.84,-168.72,-492.48
348247.2276,102.053,79.483,1007.537,-743.75,3613.75,-525.0,63.84,-179.36,-489.44
348247.2776,104.92,79.788,1007.903,-35.0,2957.5,-148.75,62.32,-174.8,-486.4
348247.3276,107.543,81.862,1009.672,183.75,3255.0,-665.0,48.64,-168.72,-483.36
348247.3777,107.36,84.851,1009.306,-280.0,3281.25,-708.75,44.08,-171.76,-501.6
348247.4276,101.26,83.387,1007.964,-1050.0,2712.5,-472.5,51.68,-171.76,-477.28
348247.4777,107.36,71.675,1008.757,-700.0,2826.25,-131.25,54.72,-165.68,-480.32
348247.5276,108.702,73.566,1008.818,-26.25,3211.25,-245.0,60.8,-177.84,-506.16
348247.5778,105.347,78.751,1008.025,166.25,2905.0,-971.25,68.4,-168.72,-497.04
348247.6276,105.835,78.934,1005.036,-498.75,3001.25,-691.25,50.16,-171.76,-478.8
348247.6776,101.809,72.956,1007.354,122.5,2817.5,-743.75,66.88,-179.36,-501.6
348247.7276,102.968,76.189,1007.415,-385.0,2572.5,-35.0,53.2,-174.8,-497.04
348247.7776,109.434,73.932,1009.062,17.5,2922.5,210.0,62.32,-183.92,-484.88
348247.8276,115.168,83.753,1003.999,1128.75,2485.0,-805.0,60.8,-176.32,-503.12
348247.8776,114.558,92.293,1001.986,-1058.75,3946.25,-1741.25,60.8,-171.76,-507.68
348247.9276,97.783,70.15,1010.221,-1435.0,2913.75,-1881.25,62.32,-171.76,-484.88
348247.9776,105.53,68.503,1011.868,367.5,2695.0,-105.0,66.88,-170.24,-483.36
348248.0276,105.774,72.773,1009.55,1015.0,2423.75,577.5,57.76,-171.76,-487.92
348248.0776,113.643,82.411,1001.864,796.25,2345.0,-1058.75,59.28,-176.32,-495.52
348248.1276,107.482,84.912,1006.012,-122.5,3167.5,-1417.5,59.28,-180.88,-484.88
348248.1776,104.066,79.605,1004.792,-997.5,2852.5,-980.0,45.6,-174.8,-492.48
348248.2276,108.214,73.444,1007.232,-1058.75,2791.25,-463.75,54.72,-170.24,-498.56
348248.2776,110.044,72.773,1008.757,323.75,2992.5,-358.75,59.28,-180.88,-494.0
348248.3276,107.421,76.494,1007.72,70.0,3202.5,-1268.75,69.92,-180.88,-469.68
348248.3776,104.371,77.287,1005.89,70.0,2896.25,-1575.0,44.08,-179.36,-489.44
348248.4276,106.018,77.043,1006.744,-446.25,2660.0,-1015.0,50.16,-170.24,-481.84
348248.4776,107.36,71.919,1007.415,-288.75,2730.0,-463.75,69.92,-174.8,-501.6
348248.5276,105.469,72.651,1006.561,971.25,2205.0,-586.25,54.72,-170.24,-486.4
348248.5776,106.994,84.485,1007.964,-236.25,3325.0,-577.5,60.8,-164.16,-503.12
348248.6276,105.774,75.03,1006.317,-743.75,3053.75,-332.5,59.28,-165.68,-486.4
348248.6776,104.859,72.895,1004.548,-26.25,2703.75,-542.5,38.0,-164.16,-472.72
348248.7276,104.737,67.588,1009.062,717.5,2520.0,-691.25,57.76,-180.88,-490.96
348248.7776,108.824,78.629,1005.768,1023.75,2231.25,-455.0,42.56,-161.12,-495.52
348248.8276,106.994,84.302,1008.696,0.0,3141.25,-525.0,63.84,-161.12,-484.88
348248.8776,103.273,81.13,1004.304,-472.5,2353.75,-691.25,62.32,-173.28,-478.8
348248.9276,114.314,74.786,1009.428,-183.75,2467.5,-420.0,41.04,-177.84,-481.84
348248.9776,109.861,75.823,1009.794,446.25,3263.75,-446.25,59.28,-168.72,-487.92
348249.0276,109.617,80.642,1006.866,280.0,2896.25,-1636.25,65.36,-174.8,-484.88
348249.0776,110.105,82.533,1002.779,-411.25,3368.75,-988.75,59.28,-173.28,-492.48
348249.1276,107.482,78.812,1004.06,-971.25,3106.25,-376.25,59.28,-177.84,-495.52
348249.1776,110.959,72.773,1007.049,-551.25,2983.75,-35.0,53.2,-164.16,-484.88
348249.2276,110.776,67.649,1009.184,157.5,3018.75,-253.75,76.0,-179.36,-474.24
348249.2776,111.02,76.433,1010.831,210.0,3543.75,-971.25,65.36,-174.8,-494.0
348249.3276,107.787,75.274,1009.611,140.0,3062.5,-1303.75,57.76,-179.36,-495.52
348249.3776,106.811,70.455,1005.707,271.25,3062.5,-927.5,71.44,-171.76,-480.32
348249.4276,106.384,75.274,1007.72,1163.75,2476.25,-726.25,54.72,-168.72,-483.36
348249.4776,106.445,81.008,1006.683,918.75,2327.5,-446.25,53.2,-159.6,-497.04
348249.5276,110.166,83.265,1007.354,-280.0,4296.25,-262.5,68.4,-173.28,-494.0
348249.5776,96.929,77.348,1007.659,-43.75,2948.75,-953.75,66.88,-173.28,-486.4
348249.6276,112.545,80.764,1008.696,166.25,2528.75,-542.5,59.28,-165.68,-497.04
348249.6776,109.8,77.287,1006.866,262.5,3316.25,96.25,38.0,-168.72,-489.44
348249.7276,107.238,80.337,1008.696,-271.25,3281.25,-463.75,62.32,-173.28,-484.88
348249.7776,106.262,81.801,1005.402,-105.0,2747.5,-708.75,65.36,-182.4,-483.36
348249.8276,108.458,78.202,1006.683,-297.5,2826.25,-350.0,63.84,-177.84,-487.92
348249.8776,110.044,74.542,1008.452,-463.75,2791.25,-446.25,53.2,-165.68,-497.04
348249.9276,116.632,74.176,1008.635,-61.25,3097.5,-148.75,63.84,-171.76,-475.76
348249.9776,114.436,80.825,1008.33,271.25,3570.0,-437.5,53.2,-173.28,-497.04
348250.0276,107.116,75.945,1009.245,-831.25,2992.5,-945.0,51.68,-176.32,-484.88
348250.0776,110.105,68.198,1008.086,-385.0,3141.25,-1006.25,69.92,-171.76,-487.92
348250.1276,104.92,73.688,1007.598,743.75,2633.75,-910.0,71.44,-164.16,-483.36
348250.1776,109.19,79.91,1007.842,262.5,2441.25,-595.0,48.64,-180.88,-462.08
348250.2276,111.691,83.509,1009.306,96.25,3675.0,-61.25,54.72,-176.32,-504.64
348250.2776,101.504,81.435,1009.977,-393.75,2756.25,-586.25,76.0,-171.76,-483.36
348250.3276,108.336,71.736,1007.659,-603.75,2467.5,-945.0,57.76,-177.84,-480.32
348250.3776,110.105,68.625,1006.988,437.5,3395.0,-96.25,48.64,-174.8,-503.12
348250.4276,104.005,78.263,1007.781,875.0,2870.0,-997.5,60.8,-176.32,-472.72
348250.4776,106.506,81.74,1006.5,638.75,2546.25,-1181.25,47.12,-174.8,-484.88
348250.5276,108.275,78.629,1008.208,183.75,2607.5,-297.5,57.76,-167.2,-497.04
348250.5776,108.519,75.64,1009.55,-201.25,2765.0,113.75,60.8,-165.68,-495.52
348250.6278,115.412,79.544,1008.391,1426.25,2957.5,-350.0,68.4,-174.8,-478.8
