TimeStamp,ax,ay,az,gx,gy,gz,mx,my,mz
348287.1776,76.433,38.552,1020.713,-1688.75,568.75,1093.75,51.68,-171.76,-495.52
348287.2276,96.563,56.425,1013.576,1916.25,1050.0,-1653.75,60.8,-174.8,-498.56
348287.2776,94.367,81.069,1008.025,665.0,3123.75,-1137.5,77.52,-168.72,-498.56
348287.3276,79.666,77.592,1009.855,-1942.5,2948.75,-516.25,66.88,-167.2,-498.56
348287.3776,84.119,63.318,1009.794,-586.25,2861.25,-481.25,62.32,-161.12,-500.08
348287.4276,86.742,70.638,1012.051,761.25,3071.25,-848.75,82.08,-167.2,-495.52
348287.4776,78.141,68.93,1015.528,-1907.5,3351.25,-1846.25,71.44,-177.84,-490.96
348287.5276,79.544,62.037,1011.929,-1435.0,2712.5,-2765.0,71.44,-167.2,-507.68
348287.5776,74.603,58.804,1008.147,-446.25,2835.0,-1680.0,71.44,-170.24,-504.64
348287.6276,78.568,63.623,1008.086,358.75,2152.5,-463.75,82.08,-168.72,-500.08
348287.6776,82.777,71.797,1006.5,-148.75,2738.75,-140.0,69.92,-161.12,-494.0
348287.7276,79.91,53.192,1013.759,-805.0,2231.25,227.5,63.84,-171.76,-497.04
348287.7776,86.071,56.852,1013.942,-61.25,2257.5,1023.75,71.44,-152.0,-507.68
348287.8276,83.143,51.545,1010.282,498.75,1925.0,507.5,77.52,-162.64,-498.56
348287.8776,97.478,66.063,1008.208,341.25,2275.0,-1715.0,51.68,-171.76,-495.52
348287.9276,91.744,67.71,1008.025,-332.5,3841.25,-770.0,79.04,-159.6,-498.56
348287.9776,72.468,66.185,1011.014,-61.25,2931.25,-1260.0,74.48,-176.32,-489.44
348288.0276,80.459,65.575,1011.563,-638.75,2196.25,-980.0,77.52,-168.72,-487.92
348288.0776,94.916,48.617,1014.186,638.75,2896.25,1032.5,76.0,-176.32,-498.56
348288.1276,86.803,67.832,1011.075,1942.5,3631.25,-525.0,62.32,-159.6,-498.56
348288.1776,86.254,70.272,1011.685,166.25,3158.75,-1076.25,65.36,-165.68,-489.44
348288.2276,83.021,61.122,1009.367,726.25,3333.75,-236.25,72.96,-168.72,-498.56
348288.2776,79.544,68.198,1011.624,140.0,3036.25,-26.25,60.8,-153.52,-501.6
348288.3276,84.18,67.222,1007.781,-175.0,2213.75,-420.0,82.08,-168.72,-490.96
348288.3776,94.184,70.272,1012.661,-288.75,3298.75,-358.75,72.96,-177.84,-484.88
348288.4276,82.106,66.246,1010.16,-367.5,3018.75,-1050.0,80.56,-170.24,-497.04
348288.4776,84.546,61.915,1009.184,-953.75,2808.75,-612.5,69.92,-158.08,-506.16
348288.5276,87.535,55.693,1012.478,1120.0,3053.75,140.0,77.52,-162.64,-489.44
348288.5776,84.241,70.028,1009.123,411.25,3263.75,-157.5,68.4,-168.72,-498.56
348288.6276,84.973,72.041,1007.354,-551.25,3753.75,-717.5,57.76,-167.2,-501.6
348288.6776,84.363,61.793,1010.77,-297.5,2940.0,-1207.5,68.4,-162.64,-481.84
348288.7276,85.095,56.547,1010.953,-288.75,3106.25,210.0,69.92,-158.08,-490.96
348288.7776,81.435,60.939,1010.038,595.0,3246.25,638.75,69.92,-158.08,-503.12
348288.8276,87.23,69.418,1014.613,1120.0,2992.5,-297.5,72.96,-161.12,-507.68
348288.8776,81.618,68.686,1010.709,437.5,3325.0,-586.25,79.04,-167.2,-494.0
348288.9276,82.472,65.026,1007.171,-227.5,2782.5,-1032.5,59.28,-156.56,-484.88
348288.9776,81.374,66.368,1011.38,437.5,2327.5,-472.5,63.84,-167.2,-513.76
348289.0276,87.352,69.174,1008.513,52.5,2817.5,577.5,80.56,-167.2,-503.12
348289.0776,90.28,73.505,1006.256,367.5,3167.5,551.25,74.48,-173.28,-504.64
348289.1276,84.424,71.492,1011.929,-341.25,3316.25,-43.75,82.08,-170.24,-497.04
348289.1776,83.875,64.416,1011.868,-1120.0,2948.75,-385.0,82.08,-161.12,-481.84
348289.2276,83.814,58.865,1011.197,227.5,3176.25,367.5,76.0,-173.28,-500.08
348289.2776,79.544,64.965,1009.245,402.5,2870.0,-148.75,68.4,-156.56,-498.56
348289.3276,85.034,66.49,1009.489,332.5,2668.75,-1268.75,63.84,-177.84,-509.2
348289.3776,88.511,68.442,1007.171,-201.25,3193.75,-551.25,65.36,-158.08,-504.64
348289.4276,80.703,63.928,1009.855,-376.25,3132.5,-96.25,60.8,-168.72,-490.96
348289.4776,83.692,63.074,1010.587,17.5,2388.75,-472.5,57.76,-173.28,-507.68
348289.5276,88.389,66.002,1010.038,218.75,3053.75,-113.75,50.16,-162.64,-487.92
348289.5776,82.045,65.331,1012.295,-131.25,3447.5,-603.75,66.88,-167.2,-497.04
348289.6276,81.984,60.451,1011.258,-595.0,2633.75,-507.5,66.88,-170.24,-498.56
348289.6776,79.239,52.582,1011.197,35.0,2703.75,288.75,68.4,-165.68,-494.0
348289.7276,89.304,55.876,1016.321,1688.75,2607.5,507.5,82.08,-171.76,-494.0
348289.7776,85.095,67.344,1008.635,1557.5,2301.25,-166.25,80.56,-171.76,-489.44
348289.8278,89.975,79.544,1008.635,1303.75,3780.0,-1461.25,71.44,-158.08,-495.52
348289.8776,78.507,80.947,1010.831,-87.5,3115.0,-2100.0,62.32,-176.32,-507.68
348289.9277,85.156,64.721,1009.123,-813.75,3202.5,-1435.0,62.32,-167.2,-481.84
348289.9776,87.657,65.514,1013.332,577.5,3211.25,315.0,66.88,-177.84,-497.04
348290.0277,83.082,69.845,1012.966,551.25,3622.5,210.0,63.84,-167.2,-500.08
348290.0776,85.034,70.943,1006.561,288.75,2852.5,-1400.0,69.92,-177.84,-495.52
348290.1276,85.034,68.686,1010.892,-271.25,3202.5,-1443.75,74.48,-168.72,-503.12
348290.1776,83.082,64.904,1012.417,-481.25,3535.0,-1067.5,59.28,-162.64,-490.96
348290.2276,86.132,62.708,1011.014,-411.25,3596.25,-323.75,74.48,-159.6,-498.56
348290.2776,78.446,60.573,1011.99,1015.0,3727.5,-463.75,72.96,-155.04,-504.64
348290.3276,77.104,79.056,1009.672,227.5,3377.5,-1907.5,76.0,-164.16,-489.44
348290.3776,82.472,70.882,1007.537,-472.5,3263.75,-1286.25,77.52,-173.28,-506.16
348290.4276,75.457,65.026,1012.661,-796.25,3517.5,-166.25,71.44,-167.2,-504.64
348290.4776,79.483,59.353,1016.565,-157.5,2590.0,-271.25,68.4,-168.72,-494.0
348290.5276,88.694,57.767,1016.931,1645.0,3928.75,350.0,65.36,-165.68,-490.96
348290.5776,76.067,75.945,1009.611,2467.5,4226.25,-1312.5,74.48,-165.68,-494.0
348290.6276,71.37,89.121,1007.781,1723.75,3631.25,-1925.0,89.68,-164.16,-504.64
348290.6776,70.333,83.204,1006.683,-490.0,3815.0,-936.25,82.08,-168.72,-495.52
348290.7276,66.978,83.082,1014.674,-586.25,3132.5,-43.75,66.88,-182.4,-516.8
348290.7776,77.836,70.333,1012.783,-910.0,2476.25,840.0,68.4,-159.6,-503.12
348290.8276,80.947,68.625,1013.21,-218.75,2458.75,-218.75,77.52,-170.24,-498.56
348290.8776,78.019,70.333,1011.258,-96.25,2336.25,-883.75,80.56,-173.28,-489.44
348290.9276,78.995,69.662,1012.173,-612.5,2528.75,-35.0,50.16,-173.28,-503.12
348290.9776,75.518,62.586,1012.356,-35.0,2476.25,393.75,79.04,-158.08,-501.6
348291.0276,83.143,67.344,1009.428,1338.75,2660.0,-131.25,68.4,-164.16,-498.56
348291.0776,78.385,76.677,1008.635,227.5,2913.75,-516.25,66.88,-159.6,-494.0
348291.1276,77.531,65.453,1007.11,-682.5,2992.5,-323.75,74.48,-165.68,-497.04
348291.1776,73.505,68.381,1014.247,358.75,3018.75,262.5,76.0,-170.24,-495.52
348291.2276,79.178,70.394,1013.088,-140.0,2966.25,516.25,79.04,-164.16,-497.04
348291.2776,75.213,74.908,1012.356,761.25,2537.5,-770.0,63.84,-171.76,-481.84
348291.3276,77.287,79.117,1008.513,315.0,2441.25,-472.5,79.04,-171.76,-507.68
348291.3776,79.788,77.531,1011.624,-883.75,2537.5,-175.0,82.08,-164.16,-497.04
348291.4276,82.655,70.211,1012.295,-148.75,2537.5,-61.25,65.36,-170.24,-495.52
348291.4776,87.291,82.472,1010.709,-35.0,3080.0,-26.25,69.92,-165.68,-509.2
348291.5276,78.812,62.403,1009.672,-411.25,3255.0,-822.5,71.44,-170.24,-503.12
348291.5776,76.433,67.527,1012.844,595.0,2598.75,-1575.0,85.12,-165.68,-498.56
348291.6276,80.337,67.649,1010.282,603.75,2091.25,-472.5,59.28,-171.76,-497.04
348291.6776,86.376,64.965,1012.356,743.75,2607.5,-586.25,65.36,-162.64,-498.56
348291.7276,90.463,74.176,1013.21,892.5,3001.25,-1373.75,76.0,-161.12,-495.52
348291.7776,84.241,71.248,1010.16,805.0,3753.75,-2047.5,68.4,-168.72,-501.6
348291.8276,79.3,78.568,1008.086,-52.5,3325.0,-1653.75,68.4,-164.16,-495.52
348291.8776,78.995,64.721,1008.452,752.5,3115.0,-385.0,69.92,-170.24,-503.12
348291.9276,81.069,72.956,1012.661,201.25,3001.25,-61.25,82.08,-170.24,-489.44
348291.9776,85.766,68.381,1012.112,1260.0,2563.75,-525.0,77.52,-173.28,-503.12
348292.0276,81.069,77.836,1014.369,183.75,3500.0,-726.25,62.32,-176.32,-503.12
348292.0776,77.165,76.25,1011.807,-332.5,2782.5,-691.25,71.44,-171.76,-504.64
348292.1276,79.727,71.37,1009.611,-1688.75,2791.25,-630.0,68.4,-162.64,-504.64
348292.1776,89.365,69.662,1009.672,2800.0,2415.0,-1041.25,45.6,-171.76,-492.48
348292.2276,85.4,92.781,1003.877,1942.5,3211.25,-1085.0,69.92,-177.84,-506.16
348292.2776,81.13,94.367,1008.452,-533.75,2940.0,-577.5,76.0,-179.36,-484.88
348292.3276,82.716,80.459,1010.404,-805.0,2826.25,-315.0,76.0,-165.68,-481.84
348292.3776,85.705,75.64,1011.197,1023.75,3088.75,-805.0,63.84,-173.28,-509.2
348292.4276,87.718,81.13,1008.696,1155.0,3438.75,-1312.5,68.4,-168.72,-497.04
348292.4776,82.716,86.315,1009.794,358.75,3386.25,-1093.75,72.96,-176.32,-490.96
348292.5276,78.873,82.716,1007.598,-437.5,3438.75,-586.25,57.76,-167.2,-506.16
348292.5776,75.091,80.276,1008.025,-612.5,2817.5,-927.5,69.92,-162.64,-509.2
348292.6276,82.655,77.897,1007.598,-1452.5,2590.0,-35.0,83.6,-170.24,-501.6
348292.6776,91.378,75.213,1007.72,-271.25,3272.5,35.0,62.32,-170.24,-481.84
348292.7276,76.616,77.836,1010.282,-1277.5,3167.5,-1207.5,72.96,-156.56,-515.28
348292.7776,85.034,69.784,1012.417,-411.25,2887.5,-1645.0,68.4,-167.2,-506.16
348292.8276,84.424,77.226,1007.598,87.5,3325.0,-1032.5,72.96,-180.88,-495.52
348292.8776,77.104,76.738,1012.051,-96.25,3447.5,-1137.5,59.28,-165.68,-495.52
348292.9276,73.2,78.08,1009.184,-96.25,2896.25,-1286.25,63.84,-165.68,-498.56
348292.9776,81.923,76.067,1011.746,-927.5,2633.75,131.25,72.96,-168.72,-503.12
348293.0276,74.298,66.673,1011.502,-1225.0,2791.25,166.25,63.84,-171.76,-490.96
348293.0778,77.775,64.172,1013.027,332.5,1758.75,-376.25,63.84,-170.24,-500.08
348293.1276,87.352,78.69,1009.123,-498.75,3027.5,-26.25,77.52,-159.6,-504.64
348293.1777,83.204,70.577,1008.818,-1207.5,2800.0,-210.0,80.56,-167.2,-504.64
348293.2276,80.703,67.588,1008.574,-953.75,2931.25,-1347.5,79.04,-177.84,-487.92
348293.2777,81.862,69.967,1011.38,-717.5,2511.25,-1163.75,66.88,-168.72,-504.64
348293.3276,87.84,70.455,1011.014,-560.0,2458.75,-148.75,66.88,-155.04,-506.16
348293.3776,80.093,77.775,1011.502,-367.5,3447.5,-525.0,82.08,-158.08,-490.96
348293.4276,77.348,73.749,1010.953,-1680.0,2660.0,-1207.5,65.36,-152.0,-506.16
348293.4776,85.278,62.586,1011.258,192.5,2353.75,-1015.0,63.84,-164.16,-490.96
348293.5276,85.4,70.516,1012.783,-43.75,3290.0,-8.75,80.56,-165.68,-480.32
348293.5776,84.668,69.601,1008.391,52.5,2922.5,-770.0,72.96,-168.72,-498.56
348293.6276,84.79,70.577,1009.123,-525.0,2896.25,-1120.0,69.92,-174.8,-503.12
348293.6776,85.217,64.05,1006.805,-656.25,3062.5,-428.75,79.04,-164.16,-486.4
348293.7276,89.609,65.026,1008.879,-26.25,3246.25,-201.25,74.48,-170.24,-509.2
348293.7776,82.472,63.745,1011.746,113.75,3675.0,-621.25,69.92,-171.76,-494.0
348293.8276,75.945,65.453,1012.722,-183.75,3202.5,-682.5,74.48,-159.6,-495.52
348293.8776,83.57,64.66,1009.916,271.25,2721.25,-638.75,82.08,-168.72,-513.76
348293.9276,82.045,64.05,1010.587,883.75,2721.25,-498.75,72.96,-164.16,-497.04
348293.9776,81.74,75.03,1010.404,638.75,2353.75,-367.5,63.84,-165.68,-489.44
348294.0276,88.572,73.993,1007.476,183.75,2852.5,-253.75,79.04,-156.56,-490.96
348294.0779,80.886,67.954,1011.929,-1198.75,3386.25,-411.25,74.48,-183.92,-500.08
348294.1276,82.655,65.697,1010.404,122.5,2861.25,-542.5,68.4,-155.04,-501.6
348294.1776,85.644,63.684,1011.807,472.5,2957.5,-78.75,69.92,-176.32,-497.04
348294.2276,86.62,71.736,1010.404,1093.75,3491.25,-280.0,65.36,-170.24,-495.52
348294.2776,80.032,72.468,1008.147,175.0,3526.25,-901.25,53.2,-167.2,-498.56
348294.3276,79.971,72.346,1008.818,-288.75,2572.5,-1155.0,71.44,-167.2,-495.52
348294.3776,81.923,66.307,1010.221,-367.5,2826.25,87.5,72.96,-162.64,-503.12
348294.4276,84.424,69.296,1012.356,70.0,2940.0,122.5,60.8,-173.28,-480.32
348294.4776,86.132,73.749,1010.831,-376.25,3281.25,-446.25,63.84,-176.32,-509.2
348294.5276,80.886,63.074,1011.746,-560.0,2983.75,-656.25,76.0,-159.6,-501.6
348294.5776,77.043,62.464,1012.173,236.25,3185.0,-1251.25,72.96,-177.84,-498.56
348294.6276,81.191,67.161,1008.208,411.25,2922.5,-472.5,60.8,-165.68,-495.52
348294.6776,80.154,68.747,1009.733,857.5,2677.5,-700.0,63.84,-174.8,-475.76
348294.7276,84.851,77.47,1007.476,341.25,3053.75,-735.0,83.6,-165.68,-500.08
348294.7776,75.213,76.677,1009.245,-673.75,3211.25,-358.75,80.56,-158.08,-503.12
348294.8276,81.313,70.089,1012.051,-988.75,2476.25,-192.5,71.44,-161.12,-512.24
348294.8776,86.315,66.734,1011.563,-516.25,3001.25,-87.5,83.6,-173.28,-480.32
348294.9276,85.156,65.941,1011.38,-402.5,2983.75,-595.0,68.4,-156.56,-484.88
348294.9776,81.74,69.601,1011.624,-262.5,2712.5,-1085.0,62.32,-161.12,-487.92
348295.0276,81.862,69.479,1011.624,-901.25,2660.0,-586.25,74.48,-159.6,-500.08
348295.0776,83.814,57.889,1010.465,-787.5,2782.5,-105.0,74.48,-168.72,-497.04
348295.1276,91.195,62.83,1010.77,831.25,3202.5,-630.0,57.76,-168.72,-490.96
348295.1776,84.973,70.211,1011.868,-332.5,4051.25,-953.75,71.44,-156.56,-500.08
348295.2276,78.446,59.414,1009.794,-682.5,3115.0,-1680.0,79.04,-168.72,-498.56
348295.2776,81.252,58.194,1009.001,210.0,3150.0,-883.75,76.0,-171.76,-483.36
348295.3276,80.703,62.403,1010.831,752.5,2738.75,-376.25,74.48,-156.56,-507.68
348295.3776,82.411,67.649,1006.195,1662.5,2546.25,-997.5,69.92,-162.64,-507.68
348295.4276,80.52,77.897,1009.794,262.5,3316.25,-1023.75,72.96,-167.2,-498.56
348295.4776,78.751,73.505,1007.476,-700.0,2581.25,-1540.0,56.24,-170.24,-495.52
348295.5276,85.217,69.174,1012.905,-735.0,2756.25,-472.5,65.36,-155.04,-510.72
348295.5776,82.472,62.83,1010.282,148.75,2905.0,131.25,79.04,-177.84,-506.16
348295.6276,85.705,65.941,1010.038,-122.5,3088.75,-551.25,71.44,-167.2,-483.36
348295.6776,81.679,67.222,1010.282,26.25,3097.5,-1251.25,77.52,-176.32,-506.16
348295.7276,80.093,60.939,1009.977,-472.5,2817.5,-857.5,65.36,-174.8,-498.56
348295.7776,82.472,62.586,1010.77,-35.0,2581.25,-656.25,77.52,-155.04,-487.92
348295.8276,83.082,61.183,1011.38,971.25,2660.0,-341.25,63.84,-162.64,-495.52
348295.8776,87.169,68.198,1009.794,1146.25,2371.25,-1373.75,69.92,-159.6,-506.16
348295.9276,84.851,66.673,1011.014,-560.0,2983.75,-1260.0,77.52,-156.56,-490.96
348295.9776,81.496,60.878,1011.197,201.25,3298.75,-638.75,76.0,-177.84,-495.52
348296.0276,79.727,64.843,1010.831,778.75,2353.75,-586.25,60.8,-162.64,-507.68
348296.0776,88.572,68.198,1005.829,157.5,2476.25,-166.25,62.32,-168.72,-489.44
348296.1276,94.123,75.03,1008.818,437.5,3902.5,-148.75,77.52,-161.12,-490.96
348296.1776,74.908,72.529,1012.173,-787.5,2555.0,-1268.75,66.88,-173.28,-489.44
348296.2276,89.121,65.392,1009.123,-525.0,2852.5,-586.25,63.84,-156.56,-490.96
348296.2776,86.62,65.026,1009.916,-332.5,3386.25,148.75,80.56,-171.76,-507.68
348296.3278,83.204,63.562,1009.855,26.25,3185.0,-1277.5,68.4,-168.72,-500.08
348296.3776,80.581,66.734,1009.672,-236.25,3255.0,-1172.5,63.84,-170.24,-498.56
348296.4277,77.287,62.525,1011.197,-455.0,3298.75,-376.25,79.04,-173.28,-504.64
348296.4776,76.799,59.353,1013.698,796.25,2922.5,-367.5,59.28,-170.24,-484.88
348296.5277,82.106,61.488,1008.269,1338.75,2721.25,-490.0,59.28,-159.6,-509.2
348296.5776,87.291,73.81,1009.428,1120.0,3342.5,-533.75,66.88,-162.64,-506.16
348296.6276,82.899,72.224,1009.977,-262.5,3351.25,-813.75,53.2,-158.08,-504.64
348296.6776,80.764,61.122,1009.672,140.0,2651.25,-1356.25,68.4,-177.84,-498.56
348296.7276,84.18,69.784,1008.635,848.75,2773.75,-857.5,56.24,-170.24,-487.92
348296.7776,86.193,74.725,1013.637,428.75,3403.75,-577.5,82.08,-156.56,-498.56
348296.8276,74.481,73.444,1013.271,-577.5,4375.0,-2248.75,77.52,-168.72,-495.52
348296.8776,71.309,67.649,1013.393,-630.0,2450.0,-2353.75,60.8,-167.2,-497.04
348296.9276,82.106,60.756,1011.319,70.0,3456.25,245.0,77.52,-165.68,-500.08
348296.9776,76.372,65.087,1015.772,805.0,3290.0,586.25,71.44,-161.12,-480.32
348297.0276,78.019,72.224,1010.343,411.25,2975.0,-1225.0,82.08,-180.88,-497.04
348297.0776,75.64,73.749,1009.245,-323.75,2800.0,-1128.75,71.44,-168.72,-501.6
348297.1276,76.189,71.797,1008.757,-813.75,2458.75,-332.5,63.84,-167.2,-501.6
348297.1776,80.215,61.0,1010.038,-1242.5,2248.75,131.25,74.48,-167.2,-497.04
348297.2276,83.326,61.61,1011.929,-595.0,2240.0,113.75,62.32,-168.72,-498.56
348297.2776,86.315,62.037,1008.269,953.75,3045.0,-848.75,72.96,-162.64,-497.04
348297.3276,77.775,68.076,1012.173,-525.0,2843.75,-1260.0,77.52,-170.24,-500.08
348297.3776,80.52,61.61,1007.354,-507.5,2450.0,-717.5,76.0,-156.56,-495.52
348297.4276,81.008,64.05,1012.661,175.0,2485.0,52.5,79.04,-174.8,-500.08
348297.4776,84.241,66.246,1009.245,-87.5,2686.25,96.25,72.96,-156.56,-490.96
348297.5276,88.999,68.686,1010.953,551.25,2747.5,-446.25,76.0,-170.24,-481.84
348297.5776,76.494,66.856,1012.661,-682.5,2563.75,-980.0,62.32,-161.12,-500.08
348297.6276,82.289,60.024,1011.929,-490.0,2091.25,-1181.25,66.88,-162.64,-498.56
348297.6776,87.718,63.684,1011.38,428.75,2651.25,-323.75,69.92,-159.6,-497.04
348297.7276,87.413,67.405,1010.648,0.0,3246.25,-96.25,76.0,-168.72,-494.0
348297.7776,77.714,64.965,1011.807,96.25,3027.5,-945.0,62.32,-167.2,-510.72
348297.8276,85.4,72.163,1009.55,-936.25,2616.25,-665.0,63.84,-153.52,-497.04
348297.8776,83.265,62.525,1011.258,-1260.0,2835.0,-166.25,69.92,-167.2,-484.88
348297.9276,82.106,54.839,1012.539,-393.75,2616.25,-122.5,60.8,-165.68,-512.24
348297.9776,87.047,59.78,1013.027,455.0,2738.75,-280.0,68.4,-158.08,-504.64
348298.0276,85.705,68.686,1010.831,-192.5,2800.0,-726.25,72.96,-161.12,-486.4
348298.0776,85.4,58.377,1010.648,-892.5,2905.0,-227.5,68.4,-159.6,-494.0
348298.1276,80.154,55.693,1013.454,-87.5,2878.75,-358.75,76.0,-164.16,-494.0
348298.1776,87.047,60.39,1009.977,43.75,2695.0,-463.75,59.28,-173.28,-489.44
348298.2276,89.243,63.623,1013.637,568.75,2677.5,-665.0,76.0,-153.52,-487.92
348298.2776,83.57,72.285,1010.526,-61.25,3465.0,-901.25,76.0,-162.64,-494.0
348298.3276,79.605,67.771,1010.77,-796.25,2835.0,-761.25,60.8,-152.0,-509.2
348298.3776,88.511,59.658,1015.284,-586.25,2782.5,-376.25,77.52,-161.12,-504.64
348298.4276,90.646,63.379,1011.746,-201.25,3150.0,-105.0,77.52,-155.04,-487.92
348298.4776,86.071,61.61,1012.356,-516.25,3158.75,-332.5,77.52,-152.0,-474.24
348298.5276,84.912,59.475,1011.868,-43.75,2695.0,-945.0,85.12,-162.64,-497.04
348298.5776,84.668,63.623,1011.014,-516.25,2738.75,-551.25,77.52,-165.68,-503.12
348298.6276,85.4,56.608,1012.295,-411.25,2852.5,-175.0,66.88,-155.04,-497.04
348298.6776,91.256,55.693,1014.552,428.75,2773.75,-358.75,72.96,-168.72,-498.56
348298.7276,92.659,62.769,1009.123,726.25,3500.0,-813.75,71.44,-165.68,-492.48
348298.7776,80.398,59.475,1009.977,-420.0,3438.75,-1015.0,66.88,-164.16,-501.6
348298.8276,84.18,59.109,1010.77,-175.0,3220.0,-1015.0,54.72,-162.64,-490.96
348298.8776,80.337,56.303,1011.441,43.75,3071.25,-288.75,68.4,-159.6,-501.6
348298.9276,82.655,58.316,1010.404,297.5,2397.5,-1365.0,72.96,-156.56,-489.44
348298.9776,88.755,61.427,1012.844,315.0,3220.0,-1181.25,54.72,-158.08,-481.84
348299.0276,80.825,62.83,1011.624,245.0,2975.0,-1032.5,63.84,-155.04,-506.16
348299.0776,85.156,59.414,1009.977,-218.75,2196.25,-1198.75,72.96,-158.08,-489.44
348299.1276,92.354,65.331,1008.025,175.0,2800.0,-262.5,79.04,-159.6,-486.4
348299.1776,85.644,62.281,1009.489,-385.0,3342.5,-813.75,66.88,-159.6,-498.56
348299.2276,83.936,61.976,1009.123,-595.0,3368.75,-1408.75,54.72,-148.96,-492.48
348299.2776,81.74,58.499,1012.6,-717.5,3158.75,-813.75,77.52,-153.52,-478.8
348299.3276,81.74,55.022,1012.417,-280.0,2835.0,-367.5,74.48,-161.12,-486.4
348299.3776,84.302,53.07,1013.21,-8.75,2791.25,-183.75,79.04,-155.04,-501.6
348299.4276,87.779,56.486,1010.038,1128.75,3027.5,-385.0,68.4,-168.72,-484.88
348299.4776,84.668,66.002,1009.916,586.25,3473.75,-936.25,72.96,-158.08,-477.28
348299.5276,83.631,60.207,1009.428,-1601.25,2940.0,-945.0,71.44,-158.08,-512.24
348299.5776,82.472,60.573,1010.282,-717.5,3176.25,-393.75,68.4,-159.6,-490.96
348299.6276,87.23,59.78,1011.014,481.25,2651.25,-437.5,77.52,-167.2,-494.0
348299.6777,85.339,60.207,1009.733,341.25,2616.25,-717.5,69.92,-162.64,-483.36
348299.7276,83.631,66.124,1010.221,253.75,3473.75,-1111.25,69.92,-173.28,-509.2
348299.7777,81.496,62.891,1011.868,-560.0,2555.0,-1172.5,69.92,-171.76,-494.0
348299.8276,86.864,59.597,1011.807,-455.0,2765.0,-411.25,72.96,-153.52,-495.52
348299.8776,85.705,61.915,1009.672,-157.5,3132.5,-236.25,63.84,-173.28,-498.56
348299.9276,85.705,62.403,1011.197,-848.75,3088.75,-778.75,94.24,-162.64,-484.88
348299.9776,84.424,57.096,1011.624,-498.75,2913.75,-805.0,66.88,-174.8,-495.52
348300.0276,83.082,53.436,1010.099,-603.75,2467.5,-332.5,65.36,-158.08,-492.48
348300.0776,85.583,55.571,1013.027,-227.5,2073.75,-560.0,72.96,-161.12,-504.64
348300.1276,91.988,51.728,1011.441,-175.0,3158.75,-463.75,62.32,-159.6,-497.04
348300.1776,83.753,54.29,1012.356,962.5,2957.5,-875.0,65.36,-159.6,-490.96
348300.2276,85.461,65.392,1011.38,-78.75,3106.25,-1015.0,63.84,-158.08,-498.56
348300.2776,82.533,53.314,1008.635,-560.0,3018.75,-490.0,65.36,-159.6,-498.56
348300.3276,87.352,52.033,1011.929,236.25,2651.25,-778.75,74.48,-162.64,-480.32
348300.3776,88.877,58.133,1013.576,848.75,2852.5,-192.5,80.56,-162.64,-510.72
348300.4276,88.999,60.451,1009.855,1190.0,2712.5,-630.0,71.44,-155.04,-498.56
348300.4776,83.021,72.712,1010.099,-551.25,2511.25,-1181.25,79.04,-162.64,-478.8
348300.5276,94.916,58.438,1009.428,-708.75,2485.0,-323.75,72.96,-168.72,-494.0
348300.5776,91.805,56.73,1012.722,131.25,3036.25,17.5,68.4,-158.08,-503.12
348300.6276,85.522,55.083,1014.735,761.25,2511.25,-656.25,79.04,-161.12,-497.04
348300.6776,88.755,56.913,1010.099,1531.25,2528.75,-1190.0,60.8,-159.6,-492.48
348300.7276,89.06,65.453,1009.916,918.75,2975.0,-183.75,63.84,-162.64,-497.04
348300.7776,89.609,63.013,1010.343,-472.5,2765.0,525.0,62.32,-147.44,-504.64
348300.8276,86.376,55.815,1012.6,8.75,2791.25,131.25,79.04,-171.76,-490.96
348300.8776,95.465,62.525,1010.465,988.75,2808.75,-805.0,72.96,-155.04,-494.0
348300.9276,87.84,64.843,1007.537,-367.5,3710.0,-980.0,60.8,-162.64,-497.04
348300.9776,85.949,56.608,1009.306,236.25,2835.0,-848.75,69.92,-144.4,-489.44
348301.0276,87.352,57.584,1010.099,708.75,2677.5,1811.25,77.52,-176.32,-494.0
348301.0776,86.437,65.697,1014.003,525.0,2537.5,542.5,51.68,-159.6,-504.64
348301.1276,91.744,73.017,1009.184,1216.25,3080.0,-341.25,62.32,-161.12,-501.6
348301.1776,84.485,75.457,1007.659,-183.75,2695.0,-726.25,74.48,-161.12,-489.44
348301.2276,90.829,64.416,1008.391,-1881.25,2607.5,-971.25,68.4,-161.12,-498.56
348301.2776,92.171,60.573,1009.794,-1102.5,3071.25,-516.25,66.88,-162.64,-492.48
348301.3276,91.317,56.974,1012.966,-218.75,3237.5,-393.75,79.04,-156.56,-497.04
348301.3776,86.498,62.525,1010.038,-96.25,3027.5,-1137.5,68.4,-156.56,-503.12
348301.4276,88.084,63.989,1008.696,-323.75,2791.25,-997.5,68.4,-152.0,-487.92
348301.4776,87.413,60.573,1006.805,-796.25,2502.5,-490.0,62.32,-173.28,-490.96
348301.5276,90.707,58.987,1011.014,-945.0,2695.0,-236.25,71.44,-156.56,-489.44
348301.5776,95.282,57.95,1009.489,210.0,3088.75,-481.25,66.88,-161.12,-501.6
348301.6276,89.548,57.401,1011.441,-875.0,3132.5,-708.75,72.96,-165.68,-506.16
348301.6776,88.633,52.582,1009.062,-980.0,3220.0,-630.0,76.0,-152.0,-492.48
348301.7276,84.607,49.227,1013.576,621.25,2651.25,-708.75,60.8,-162.64,-484.88
348301.7776,92.72,56.425,1009.001,673.75,2913.75,-428.75,65.36,-162.64,-506.16
348301.8276,92.049,68.625,1010.953,1067.5,3386.25,-621.25,77.52,-155.04,-487.92
348301.8776,85.095,67.71,1008.574,-892.5,2528.75,-752.5,85.12,-165.68,-480.32
348301.9276,90.158,59.902,1009.123,-971.25,2423.75,-437.5,57.76,-158.08,-501.6
348301.9776,91.134,56.181,1011.746,-17.5,3001.25,-140.0,68.4,-156.56,-498.56
348302.0276,90.158,56.974,1010.831,-113.75,3150.0,-323.75,76.0,-158.08,-483.36
348302.0776,88.328,58.072,1012.478,113.75,3202.5,-1277.5,63.84,-161.12,-489.44
348302.1276,85.827,58.56,1009.916,-210.0,2878.75,-1032.5,65.36,-158.08,-494.0
348302.1776,88.511,56.547,1009.794,-280.0,2765.0,-481.25,57.76,-158.08,-487.92
348302.2276,88.511,53.131,1012.051,385.0,2397.5,-35.0,63.84,-168.72,-495.52
348302.2776,96.197,56.791,1010.831,796.25,2651.25,-586.25,72.96,-159.6,-498.56
348302.3276,91.012,59.414,1011.38,-673.75,2756.25,-813.75,66.88,-148.96,-500.08
348302.3776,91.439,55.937,1011.014,-525.0,3045.0,-857.5,72.96,-162.64,-478.8
348302.4276,87.901,50.996,1013.82,507.5,2485.0,-857.5,69.92,-152.0,-492.48
348302.4776,91.195,60.329,1013.576,1137.5,1968.75,-682.5,68.4,-167.2,-484.88
348302.5276,98.82,62.403,1009.489,1128.75,2756.25,-551.25,82.08,-158.08,-503.12
348302.5776,84.058,67.71,1010.404,-297.5,3193.75,-778.75,63.84,-164.16,-477.28
348302.6276,88.084,58.682,1008.452,-848.75,2432.5,-1076.25,62.32,-152.0,-489.44
348302.6776,98.149,61.976,1008.513,-323.75,3010.0,-332.5,69.92,-156.56,-490.96
348302.7276,95.709,56.791,1012.966,-437.5,3482.5,70.0,62.32,-147.44,-480.32
348302.7776,92.232,56.913,1011.502,-315.0,3543.75,-787.5,71.44,-161.12,-500.08
348302.8276,89.243,56.608,1011.99,-577.5,2826.25,-1338.75,63.84,-164.16,-497.04
348302.8776,91.195,53.68,1010.343,-778.75,2677.5,-875.0,60.8,-156.56,-509.2
348302.9278,94.306,50.935,1007.964,498.75,3001.25,-341.25,63.84,-159.6,-468.16
348302.9776,93.574,62.769,1008.208,332.5,3998.75,-673.75,60.8,-165.68,-478.8
348303.0277,86.315,60.268,1007.232,-770.0,3421.25,-1216.25,66.88,-164.16,-509.2
348303.0776,88.45,45.811,1012.173,-1058.75,3561.25,-1417.5,69.92,-161.12,-506.16
348303.1277,86.803,46.787,1013.576,367.5,3167.5,-988.75,77.52,-171.76,-490.96
348303.1776,88.023,55.815,1011.99,1216.25,2642.5,-393.75,68.4,-162.64,-486.4
348303.2276,90.89,66.673,1008.391,735.0,3377.5,-708.75,66.88,-162.64,-490.96
348303.2776,84.363,64.965,1009.062,-350.0,2922.5,-1111.25,71.44,-161.12,-503.12
348303.3276,87.413,54.595,1009.733,-691.25,2905.0,-1155.0,79.04,-156.56,-489.44
348303.3776,88.206,54.168,1012.478,-323.75,2870.0,-481.25,66.88,-171.76,-498.56
348303.4276,91.5,55.266,1011.075,87.5,3316.25,-533.75,66.88,-165.68,-487.92
348303.4776,85.034,57.767,1008.696,-735.0,3272.5,-1330.0,76.0,-159.6,-494.0
348303.5276,87.657,52.277,1009.001,-490.0,3027.5,-1093.75,86.64,-158.08,-487.92
348303.5776,90.219,49.837,1009.123,183.75,2546.25,-183.75,53.2,-162.64,-500.08
348303.6276,93.025,50.447,1012.844,1032.5,2730.0,-131.25,72.96,-162.64,-500.08
348303.6776,91.256,60.756,1008.452,988.75,3403.75,-910.0,74.48,-156.56,-486.4
348303.7276,89.548,55.632,1011.319,507.5,2940.0,-1400.0,62.32,-167.2,-484.88
348303.7776,86.01,54.961,1010.465,708.75,3001.25,-1295.0,76.0,-156.56,-487.92
348303.8276,87.962,59.475,1012.966,-166.25,3132.5,-245.0,88.16,-168.72,-500.08
348303.8776,86.986,55.632,1010.221,341.25,2835.0,-271.25,79.04,-156.56,-486.4
348303.9276,86.742,63.806,1012.539,1286.25,3333.75,-910.0,65.36,-168.72,-494.0
348303.9776,83.021,66.185,1012.051,262.5,2913.75,-1093.75,59.28,-159.6,-490.96
348304.0276,87.474,63.074,1009.733,78.75,2870.0,-778.75,85.12,-159.6,-495.52
348304.0776,92.11,62.647,1009.123,122.5,2878.75,-210.0,79.04,-159.6,-483.36
348304.1276,90.219,61.122,1011.258,-332.5,3167.5,-726.25,41.04,-161.12,-498.56
348304.1776,86.742,56.425,1010.953,-332.5,2590.0,-1050.0,72.96,-156.56,-506.16
348304.2276,87.657,54.351,1011.624,-455.0,2721.25,-735.0,69.92,-156.56,-484.88
348304.2776,91.5,51.179,1009.245,726.25,2695.0,-280.0,59.28,-167.2,-498.56
348304.3276,91.012,58.499,1010.343,1478.75,2861.25,-892.5,66.88,-150.48,-515.28
348304.3776,93.025,72.102,1006.683,910.0,3403.75,-1470.0,76.0,-161.12,-498.56
348304.4276,83.692,61.793,1009.245,-210.0,3097.5,-1085.0,82.08,-156.56,-484.88
348304.4776,87.413,58.682,1009.916,96.25,2922.5,-770.0,82.08,-164.16,-486.4
348304.5276,89.792,60.573,1010.587,778.75,2467.5,-166.25,62.32,-164.16,-503.12
348304.5776,93.696,65.087,1008.269,796.25,2581.25,-630.0,80.56,-168.72,-495.52
348304.6276,88.694,68.808,1011.746,656.25,3325.0,-1041.25,76.0,-162.64,-503.12
348304.6776,86.803,66.673,1010.648,-472.5,2581.25,-1015.0,68.4,-162.64,-501.6
348304.7276,86.864,65.758,1009.306,-183.75,2607.5,-638.75,76.0,-165.68,-500.08
348304.7776,89.975,67.161,1008.086,-560.0,3167.5,26.25,69.92,-161.12,-500.08
348304.8276,85.522,59.658,1011.502,-787.5,3167.5,-1006.25,63.84,-162.64,-510.72
348304.8776,85.461,59.231,1008.879,-595.0,2695.0,-1303.75,71.44,-173.28,-497.04
348304.9276,88.511,54.351,1009.794,-332.5,2782.5,-411.25,74.48,-162.64,-490.96
348304.9776,91.805,55.876,1009.367,-183.75,2835.0,43.75,65.36,-159.6,-494.0
348305.0276,94.977,56.364,1009.489,866.25,2931.25,-770.0,71.44,-153.52,-509.2
348305.0776,87.23,71.675,1009.123,-70.0,3132.5,-1146.25,72.96,-153.52,-507.68
348305.1276,86.254,62.22,1008.757,-638.75,2983.75,-1041.25,79.04,-158.08,-480.32
348305.1776,88.389,55.998,1009.672,192.5,2292.5,-446.25,85.12,-168.72,-501.6
348305.2276,92.476,63.074,1010.526,638.75,2275.0,8.75,65.36,-156.56,-481.84
348305.2776,95.953,65.88,1008.94,700.0,3080.0,-507.5,77.52,-158.08,-483.36
348305.3276,84.546,68.259,1012.722,262.5,3010.0,-1015.0,68.4,-156.56,-484.88
348305.3776,94.184,61.183,1009.55,-297.5,2992.5,-280.0,68.4,-167.2,-503.12
348305.4276,90.341,58.926,1011.624,551.25,3780.0,490.0,80.56,-176.32,-495.52
348305.4776,89.243,63.013,1007.903,638.75,3456.25,-437.5,60.8,-162.64,-483.36
348305.5276,87.474,65.209,1010.404,166.25,3622.5,-1522.5,68.4,-165.68,-497.04
348305.5776,81.252,66.795,1009.855,-883.75,3185.0,-1303.75,68.4,-150.48,-489.44
348305.6276,86.681,58.133,1010.77,-971.25,2213.75,-568.75,69.92,-156.56,-506.16
348305.6776,92.049,54.412,1012.478,656.25,2511.25,70.0,68.4,-158.08,-492.48
348305.7276,93.208,61.671,1012.234,1400.0,2283.75,-612.5,54.72,-161.12,-481.84
348305.7776,91.073,64.172,1009.916,-297.5,2808.75,-551.25,80.56,-168.72,-495.52
348305.8276,88.999,57.767,1007.293,-140.0,2817.5,-533.75,76.0,-159.6,-487.92
348305.8776,91.378,63.135,1010.953,428.75,2572.5,-586.25,72.96,-158.08,-495.52
348305.9276,90.89,65.636,1010.282,306.25,2310.0,-218.75,62.32,-161.12,-503.12
348305.9776,95.831,68.625,1013.21,0.0,4147.5,-665.0,72.96,-156.56,-497.04
348306.0276,84.424,66.002,1010.221,-700.0,2931.25,-971.25,59.28,-152.0,-492.48
348306.0776,90.402,59.231,1010.465,-603.75,2738.75,-875.0,71.44,-156.56,-503.12
348306.1276,88.938,64.172,1011.624,490.0,2948.75,-498.75,80.56,-168.72,-497.04
348306.1776,86.925,62.342,1009.489,122.5,2940.0,-682.5,85.12,-164.16,-480.32
348306.2276,90.28,64.904,1008.208,-227.5,2537.5,-673.75,77.52,-159.6,-506.16
348306.2777,90.951,59.963,1012.661,-752.5,2992.5,-148.75,62.32,-156.56,-506.16
348306.3276,89.914,57.462,1009.977,-17.5,2686.25,-411.25,76.0,-161.12,-490.96
348306.3777,95.038,60.512,1012.6,26.25,3001.25,-411.25,69.92,-161.12,-495.52
348306.4276,89.365,64.721,1013.088,-577.5,3482.5,-446.25,66.88,-170.24,-494.0
348306.4776,87.596,54.107,1012.051,-516.25,2835.0,-726.25,83.6,-164.16,-487.92
348306.5276,94.916,50.447,1013.576,376.25,3027.5,-420.0,62.32,-161.12,-497.04
348306.5776,86.559,57.279,1014.308,1277.5,2826.25,-656.25,54.72,-152.0,-501.6
348306.6276,92.415,65.148,1013.82,787.5,2196.25,-901.25,69.92,-156.56,-498.56
348306.6776,95.526,73.322,1010.953,262.5,3421.25,-717.5,71.44,-161.12,-492.48
348306.7276,87.535,68.747,1010.465,-682.5,2651.25,-1155.0,71.44,-176.32,-501.6
348306.7776,95.343,63.501,1009.611,-516.25,3132.5,-1006.25,71.44,-161.12,-509.2
348306.8276,92.476,62.037,1009.855,-428.75,3596.25,-288.75,71.44,-153.52,-495.52
348306.8776,83.814,61.244,1009.428,-437.5,3228.75,-1006.25,80.56,-155.04,-483.36
348306.9276,89.182,55.51,1010.038,-122.5,2878.75,-1435.0,65.36,-165.68,-498.56
348306.9776,91.134,59.17,1009.672,-516.25,2835.0,-997.5,54.72,-155.04,-498.56
348307.0276,89.731,57.828,1012.905,253.75,2878.75,-638.75,69.92,-171.76,-481.84
348307.0776,92.476,62.464,1006.622,630.0,2957.5,-787.5,72.96,-159.6,-501.6
348307.1276,83.509,55.815,1011.441,-980.0,3010.0,-595.0,71.44,-148.96,-498.56
348307.1776,84.607,50.264,1011.075,-603.75,2712.5,-595.0,80.56,-155.04,-489.44
348307.2276,89.975,53.314,1013.393,1531.25,1951.25,-236.25,80.56,-155.04,-497.04
348307.2776,91.866,65.27,1008.574,892.5,2555.0,-472.5,65.36,-171.76,-494.0
348307.3276,93.635,69.479,1010.343,560.0,3500.0,-988.75,72.96,-152.0,-506.16
348307.3776,81.984,67.405,1011.746,-1076.25,2520.0,-1032.5,71.44,-162.64,-490.96
348307.4276,89.182,58.499,1010.831,-857.5,2397.5,-752.5,54.72,-155.04,-490.96
348307.4776,93.147,57.584,1011.136,-227.5,2738.75,262.5,68.4,-155.04,-489.44
348307.5276,93.879,58.621,1007.232,-148.75,2931.25,-332.5,74.48,-161.12,-487.92
348307.5776,87.657,62.098,1010.221,-315.0,2633.75,-1041.25,79.04,-150.48,-487.92
348307.6276,87.901,57.584,1008.757,-910.0,2642.5,-481.25,50.16,-168.72,-501.6
348307.6776,91.378,54.656,1013.82,-1006.25,2686.25,70.0,66.88,-156.56,-512.24
348307.7276,94.55,49.715,1010.526,157.5,2485.0,-122.5,65.36,-158.08,-490.96
348307.7776,94.977,64.904,1013.637,113.75,3220.0,-691.25,60.8,-152.0,-494.0
348307.8276,90.646,58.865,1009.916,-437.5,3360.0,-743.75,63.84,-158.08,-494.0
348307.8776,89.426,51.484,1009.489,0.0,3202.5,-367.5,74.48,-159.6,-494.0
348307.9276,87.047,52.826,1014.613,586.25,2563.75,-166.25,65.36,-165.68,-497.04
348307.9776,95.831,56.974,1008.757,743.75,2485.0,-61.25,59.28,-165.68,-497.04
348308.0276,97.417,62.342,1012.234,612.5,3351.25,-507.5,63.84,-155.04,-507.68
348308.0776,85.339,63.013,1009.245,-385.0,2362.5,-1338.75,57.76,-161.12,-495.52
348308.1276,95.526,54.961,1010.648,227.5,2607.5,-822.5,74.48,-162.64,-489.44
348308.1776,95.709,59.597,1011.197,8.75,2957.5,-262.5,51.68,-161.12,-503.12
348308.2276,91.744,57.523,1010.831,-218.75,3088.75,-848.75,59.28,-161.12,-483.36
348308.2776,92.598,53.68,1010.831,96.25,3088.75,-988.75,68.4,-161.12,-497.04
348308.3276,89.67,56.303,1008.147,105.0,2940.0,-682.5,60.8,-164.16,-489.44
348308.3776,90.28,55.998,1010.221,17.5,2616.25,-393.75,68.4,-150.48,-495.52
348308.4276,95.648,53.497,1011.929,577.5,2668.75,-87.5,74.48,-162.64,-475.76
348308.4776,95.282,61.61,1009.794,997.5,3675.0,-831.25,66.88,-158.08,-484.88
348308.5276,88.145,64.965,1010.587,-271.25,2922.5,-1408.75,56.24,-145.92,-504.64
348308.5776,94.672,57.157,1011.075,-568.75,2992.5,-1076.25,63.84,-159.6,-490.96
348308.6276,90.341,55.266,1011.258,551.25,2861.25,-227.5,69.92,-164.16,-494.0
348308.6776,91.5,60.39,1009.489,437.5,2511.25,-253.75,63.84,-155.04,-492.48
348308.7276,97.539,64.111,1011.258,315.0,3622.5,-437.5,77.52,-147.44,-495.52
348308.7776,87.413,65.88,1010.343,-463.75,3456.25,-665.0,74.48,-148.96,-495.52
348308.8276,90.219,57.157,1008.574,-490.0,2415.0,-1050.0,69.92,-155.04,-495.52
348308.8776,96.258,57.706,1010.282,-306.25,2870.0,175.0,59.28,-174.8,-495.52
348308.9276,93.696,55.998,1011.258,-87.5,2887.5,-122.5,74.48,-147.44,-506.16
348308.9776,93.696,54.595,1009.184,-70.0,2598.75,-848.75,71.44,-162.64,-494.0
348309.0276,91.927,58.133,1010.099,-1216.25,2931.25,-708.75,59.28,-168.72,-504.64
348309.0776,91.805,50.447,1013.637,227.5,2616.25,-656.25,60.8,-159.6,-486.4
348309.1276,97.295,54.595,1012.234,-52.5,2870.0,-463.75,76.0,-158.08,-494.0
348309.1776,97.417,54.961,1009.489,376.25,3220.0,-525.0,68.4,-173.28,-507.68
348309.2276,92.903,67.344,1009.794,-245.0,3482.5,-1207.5,68.4,-155.04,-509.2
348309.2776,88.938,58.987,1010.404,-647.5,2940.0,-1435.0,59.28,-159.6,-487.92
348309.3276,91.683,52.887,1009.306,-490.0,2905.0,-612.5,72.96,-161.12,-492.48
348309.3776,94.306,48.312,1012.417,271.25,2878.75,-96.25,62.32,-161.12,-503.12
348309.4276,97.051,59.231,1012.966,455.0,2756.25,-402.5,68.4,-147.44,-494.0
348309.4776,94.001,65.575,1009.794,236.25,3438.75,-988.75,79.04,-156.56,-504.64
348309.5278,89.06,64.05,1009.916,-1050.0,2983.75,-997.5,69.92,-173.28,-483.36
348309.5776,93.574,55.022,1009.55,-315.0,2782.5,-770.0,57.76,-155.04,-498.56
348309.6277,95.587,58.133,1009.123,-778.75,3176.25,-113.75,72.96,-165.68,-490.96
348309.6776,91.927,52.704,1011.197,-140.0,3316.25,-805.0,65.36,-156.56,-492.48
348309.7276,90.036,54.046,1011.868,-113.75,2948.75,-988.75,63.84,-155.04,-503.12
348309.7776,91.622,53.985,1010.343,-113.75,2966.25,-682.5,74.48,-158.08,-497.04
348309.8276,94.306,50.874,1010.343,-192.5,2651.25,-280.0,74.48,-161.12,-489.44
348309.8776,93.086,50.386,1013.271,183.75,2721.25,-376.25,63.84,-164.16,-490.96
348309.9276,98.027,57.767,1010.16,1295.0,3036.25,-971.25,79.04,-156.56,-500.08
348309.9776,88.999,62.159,1010.038,-463.75,3473.75,-1058.75,68.4,-147.44,-506.16
348310.0276,90.28,54.168,1007.964,-621.25,3246.25,-936.25,76.0,-158.08,-490.96
348310.0776,88.145,53.802,1012.173,-61.25,2992.5,-700.0,69.92,-164.16,-506.16
348310.1276,91.378,53.497,1010.404,236.25,2948.75,-411.25,59.28,-165.68,-503.12
348310.1776,100.04,61.183,1008.513,1085.0,3316.25,-542.5,65.36,-156.56,-489.44
348310.2276,86.071,63.379,1011.563,0.0,2896.25,-1015.0,60.8,-152.0,-480.32
348310.2776,92.293,61.427,1010.77,-490.0,2380.0,-997.5,68.4,-164.16,-495.52
348310.3276,92.049,55.266,1009.855,-218.75,3141.25,-218.75,76.0,-155.04,-486.4
348310.3776,93.452,57.584,1010.953,-140.0,2966.25,-323.75,63.84,-158.08,-490.96
348310.4276,94.794,55.754,1012.356,-647.5,2966.25,-988.75,69.92,-152.0,-500.08
348310.4776,90.341,55.571,1011.441,-201.25,3062.5,-805.0,66.88,-161.12,-489.44
348310.5276,91.744,54.656,1012.051,-603.75,3281.25,-691.25,80.56,-165.68,-477.28
348310.5776,93.269,55.388,1013.332,-113.75,2983.75,-603.75,65.36,-158.08,-489.44
348310.6276,93.757,51.362,1009.794,743.75,3027.5,-656.25,66.88,-156.56,-495.52
348310.6776,88.877,62.159,1011.807,-210.0,3640.0,-796.25,69.92,-148.96,-497.04
348310.7276,88.877,53.802,1007.964,-551.25,2835.0,-411.25,53.2,-145.92,-481.84
348310.7776,91.622,54.046,1011.929,26.25,2765.0,-341.25,59.28,-162.64,-503.12
348310.8276,89.792,56.547,1008.269,-157.5,2686.25,-52.5,83.6,-159.6,-487.92
348310.8776,100.101,56.242,1015.284,-192.5,3010.0,-280.0,60.8,-156.56,-480.32
348310.9276,86.803,62.708,1009.733,245.0,3333.75,-1373.75,56.24,-152.0,-498.56
348310.9776,86.193,57.828,1009.733,-1058.75,2555.0,-1373.75,65.36,-167.2,-504.64
348311.0276,94.062,53.863,1012.966,-210.0,3010.0,-551.25,79.04,-158.08,-494.0
348311.0776,88.267,53.192,1012.966,-586.25,3123.75,-61.25,72.96,-150.48,-489.44
348311.1276,87.474,52.033,1011.441,-122.5,2546.25,-875.0,66.88,-162.64,-495.52
348311.1776,91.988,55.022,1011.502,-43.75,2485.0,-612.5,72.96,-158.08,-501.6
348311.2276,90.829,53.253,1012.417,-131.25,2292.5,-140.0,60.8,-159.6,-475.76
348311.2776,96.746,50.569,1007.903,446.25,2030.0,-385.0,62.32,-155.04,-498.56
348311.3276,97.6,54.9,1008.391,621.25,2966.25,-980.0,65.36,-147.44,-497.04
348311.3776,97.112,62.647,1009.184,-78.75,3605.0,-1032.5,71.44,-153.52,-483.36
348311.4276,92.842,53.07,1011.014,-630.0,2773.75,-805.0,79.04,-162.64,-494.0
348311.4776,91.866,46.604,1008.33,-367.5,2756.25,-673.75,72.96,-150.48,-507.68
348311.5276,96.441,48.434,1012.112,726.25,2607.5,-376.25,74.48,-162.64,-503.12
348311.5776,97.112,55.937,1012.112,1041.25,2852.5,-717.5,69.92,-153.52,-489.44
348311.6276,95.404,60.329,1011.197,901.25,3080.0,-892.5,69.92,-147.44,-501.6
348311.6776,90.89,59.231,1010.831,-463.75,2397.5,-761.25,66.88,-142.88,-498.56
348311.7276,96.441,53.436,1010.77,183.75,2406.25,-533.75,77.52,-164.16,-503.12
348311.7776,100.955,60.939,1009.611,-323.75,2948.75,105.0,69.92,-165.68,-478.8
348311.8276,96.746,53.924,1007.537,-122.5,3578.75,-1076.25,68.4,-155.04,-507.68
348311.8776,91.5,58.438,1010.282,-516.25,3176.25,-1566.25,66.88,-155.04,-500.08
348311.9276,91.012,52.582,1012.417,-726.25,2852.5,-945.0,74.48,-173.28,-489.44
348311.9776,93.391,49.532,1009.062,-638.75,2800.0,-131.25,66.88,-158.08,-495.52
348312.0276,96.868,51.179,1011.746,1111.25,2861.25,-175.0,57.76,-145.92,-487.92
348312.0776,92.781,59.292,1009.306,-498.75,3080.0,-1032.5,71.44,-159.6,-487.92
348312.1276,89.182,49.288,1007.781,-551.25,2677.5,-1172.5,59.28,-155.04,-500.08
348312.1776,91.317,48.983,1011.38,-148.75,2476.25,-665.0,65.36,-156.56,-501.6
348312.2276,97.295,50.813,1011.319,866.25,2161.25,-96.25,69.92,-155.04,-478.8
348312.2776,101.565,56.974,1007.659,1146.25,2563.75,-481.25,53.2,-159.6,-478.8
348312.3276,98.454,63.135,1009.55,551.25,3071.25,-971.25,63.84,-161.12,-494.0
348312.3776,93.391,58.438,1012.722,-227.5,2870.0,-1067.5,63.84,-150.48,-501.6
348312.4276,95.892,56.608,1012.356,201.25,2957.5,-726.25,68.4,-168.72,-489.44
348312.4776,96.136,55.632,1010.038,87.5,3045.0,-472.5,59.28,-141.36,-490.96
348312.5276,92.293,57.401,1011.319,-61.25,3053.75,-1032.5,53.2,-162.64,-481.84
348312.5776,91.683,53.436,1010.16,-446.25,2712.5,-1076.25,74.48,-150.48,-490.96
348312.6276,95.038,51.362,1010.892,-280.0,2415.0,-17.5,76.0,-156.56,-481.84
348312.6776,98.271,48.373,1010.587,481.25,2336.25,183.75,68.4,-147.44,-503.12
348312.7276,104.371,54.778,1009.062,1041.25,2957.5,-315.0,57.76,-142.88,-510.72
348312.7778,92.171,55.754,1010.892,-708.75,3377.5,-1671.25,69.92,-162.64,-487.92
348312.8276,92.293,49.105,1007.842,-612.5,3036.25,-1837.5,65.36,-162.64,-487.92
348312.8777,93.086,48.983,1012.966,315.0,2835.0,-140.0,56.24,-162.64,-497.04
348312.9276,93.696,53.924,1009.245,1102.5,2406.25,-376.25,76.0,-152.0,-498.56
348312.9777,103.7,58.743,1009.916,927.5,2817.5,-743.75,62.32,-155.04,-481.84
348313.0276,87.84,60.756,1009.794,-96.25,3036.25,-1120.0,60.8,-155.04,-497.04
348313.0776,90.036,54.839,1011.563,-315.0,1785.0,-1583.75,74.48,-152.0,-509.2
348313.1276,102.602,50.813,1010.587,533.75,2117.5,-595.0,82.08,-156.56,-495.52
348313.1776,102.846,63.623,1007.598,525.0,2852.5,-437.5,71.44,-153.52,-489.44
348313.2276,96.136,62.83,1006.988,-385.0,2887.5,-1032.5,65.36,-167.2,-503.12
348313.2776,100.284,54.9,1008.33,-446.25,2432.5,-673.75,66.88,-170.24,-497.04
348313.3276,100.467,49.898,1010.709,-463.75,2625.0,26.25,66.88,-155.04,-483.36
348313.3776,103.273,54.778,1010.953,1050.0,2940.0,-673.75,63.84,-155.04,-495.52
348313.4276,97.722,64.355,1009.55,-586.25,3360.0,-1085.0,66.88,-147.44,-503.12
348313.4776,94.855,58.133,1006.866,-1006.25,3115.0,-805.0,71.44,-156.56,-469.68
348313.5276,93.94,48.983,1009.855,-306.25,2485.0,-428.75,69.92,-148.96,-487.92
348313.5776,96.441,52.765,1009.245,367.5,2056.25,-210.0,57.76,-153.52,-506.16
348313.6276,108.824,54.778,1006.927,1190.0,2485.0,-201.25,74.48,-156.56,-483.36
348313.6776,100.467,61.061,1010.892,551.25,3193.75,-1102.5,57.76,-162.64,-495.52
348313.7276,100.284,54.961,1010.343,-665.0,2555.0,-1172.5,63.84,-152.0,-503.12
348313.7776,100.711,50.874,1010.648,280.0,3456.25,105.0,71.44,-159.6,-497.04
348313.8276,98.881,53.924,1010.831,446.25,3456.25,-17.5,68.4,-158.08,-494.0
348313.8776,96.197,58.865,1009.306,236.25,3482.5,-1268.75,62.32,-165.68,-501.6
348313.9276,95.587,58.621,1005.951,-586.25,3272.5,-1207.5,60.8,-159.6,-504.64
348313.9776,97.905,53.07,1008.94,-201.25,2931.25,-691.25,63.84,-161.12,-484.88
348314.0276,97.539,57.462,1010.343,927.5,2668.75,-437.5,71.44,-162.64,-480.32
348314.0776,101.809,64.355,1009.672,332.5,3176.25,-446.25,62.32,-162.64,-497.04
348314.1276,94.55,50.142,1007.842,-1058.75,2607.5,-892.5,76.0,-145.92,-494.0
348314.1776,98.271,49.166,1011.563,-411.25,2756.25,-918.75,59.28,-168.72,-494.0
348314.2276,99.125,51.118,1011.197,822.5,2782.5,-175.0,57.76,-158.08,-495.52
348314.2776,97.722,57.218,1008.086,507.5,2668.75,-428.75,60.8,-156.56,-492.48
348314.3276,100.345,62.098,1009.245,560.0,3535.0,-630.0,60.8,-161.12,-495.52
348314.3776,95.953,63.867,1011.746,-437.5,2808.75,-910.0,65.36,-177.84,-494.0
348314.4276,99.613,55.571,1010.282,-533.75,2782.5,-1093.75,68.4,-155.04,-503.12
348314.4776,101.443,53.802,1009.611,35.0,3211.25,-175.0,69.92,-167.2,-506.16
348314.5276,91.866,51.423,1010.831,280.0,3062.5,-831.25,60.8,-142.88,-490.96
348314.5776,92.781,53.07,1009.733,875.0,2651.25,-1260.0,53.2,-152.0,-497.04
348314.6276,97.539,55.51,1010.404,297.5,2642.5,-218.75,63.84,-158.08,-506.16
348314.6776,97.051,55.388,1010.404,577.5,2581.25,-113.75,82.08,-150.48,-487.92
348314.7276,102.175,59.109,1007.903,463.75,2721.25,-472.5,71.44,-161.12,-478.8
348314.7776,99.43,66.978,1010.099,-122.5,3307.5,-831.25,57.76,-162.64,-475.76
348314.8276,97.661,55.815,1007.354,-708.75,2817.5,-805.0,68.4,-156.56,-509.2
348314.8776,97.295,50.63,1009.55,253.75,2625.0,-953.75,69.92,-156.56,-489.44
348314.9276,99.979,53.436,1011.563,945.0,2502.5,-551.25,69.92,-155.04,-486.4
348314.9776,104.493,59.231,1011.136,883.75,2765.0,-428.75,69.92,-153.52,-504.64
348315.0276,104.066,69.54,1010.282,437.5,3727.5,-971.25,63.84,-162.64,-481.84
348315.0776,95.587,64.294,1008.33,-1207.5,2773.75,-1286.25,68.4,-165.68,-486.4
348315.1276,100.162,57.462,1010.953,-227.5,3115.0,-673.75,65.36,-164.16,-501.6
348315.1776,100.04,60.573,1010.099,-148.75,3438.75,-61.25,63.84,-153.52,-503.12
348315.2276,97.539,61.915,1014.674,-411.25,3631.25,-813.75,71.44,-168.72,-490.96
348315.2776,97.844,60.024,1006.744,-367.5,3333.75,-1058.75,69.92,-165.68,-477.28
348315.3276,97.295,55.632,1009.977,-735.0,3167.5,-533.75,60.8,-148.96,-494.0
348315.3776,97.722,53.314,1012.966,-227.5,2703.75,-463.75,85.12,-159.6,-484.88
348315.4276,100.589,52.582,1011.563,323.75,2808.75,-332.5,74.48,-173.28,-478.8
348315.4776,99.857,60.146,1008.025,638.75,3412.5,-700.0,60.8,-158.08,-500.08
348315.5276,92.354,58.743,1012.783,-420.0,3106.25,-796.25,74.48,-150.48,-489.44
348315.5776,95.953,51.667,1009.428,-245.0,3080.0,-586.25,65.36,-155.04,-497.04
348315.6276,96.014,55.815,1008.757,-358.75,2712.5,-157.5,68.4,-155.04,-481.84
348315.6776,96.624,53.924,1011.868,192.5,2371.25,-323.75,63.84,-158.08,-495.52
348315.7276,102.48,59.841,1009.001,8.75,3867.5,-175.0,59.28,-158.08,-480.32
348315.7776,90.707,59.78,1011.563,-35.0,3220.0,-787.5,51.68,-155.04,-478.8
348315.8276,98.759,55.571,1011.563,-253.75,2668.75,-1015.0,63.84,-152.0,-497.04
348315.8776,103.639,58.255,1010.221,0.0,3237.5,245.0,77.52,-150.48,-504.64
348315.9276,97.173,57.645,1010.892,52.5,3272.5,-612.5,63.84,-148.96,-494.0
348315.9776,95.526,54.656,1011.99,-568.75,2905.0,-1435.0,60.8,-170.24,-501.6
348316.0278,96.319,56.608,1009.184,-315.0,2730.0,-875.0,53.2,-162.64,-494.0
348316.0776,94.916,47.092,1011.563,-236.25,2905.0,-306.25,74.48,-159.6,-481.84
348316.1277,99.552,51.301,1011.868,140.0,2572.5,-288.75,59.28,-162.64,-494.0
348316.1776,102.907,51.118,1009.55,673.75,3062.5,-358.75,63.84,-153.52,-501.6
348316.2277,99.308,68.015,1010.953,726.25,3535.0,-1006.25,71.44,-164.16,-501.6
348316.2776,91.561,62.952,1008.391,-332.5,3237.5,-1260.0,76.0,-164.16,-498.56
348316.3276,94.855,53.192,1011.563,-735.0,3281.25,-910.0,71.44,-161.12,-498.56
348316.3776,96.014,49.837,1013.088,323.75,2695.0,-306.25,59.28,-161.12,-495.52
348316.4276,97.844,59.841,1010.587,638.75,2633.75,-245.0,69.92,-152.0,-492.48
348316.4776,98.332,62.159,1009.001,507.5,3150.0,-516.25,60.8,-161.12,-474.24
348316.5276,93.147,59.841,1009.123,-262.5,2975.0,-953.75,69.92,-152.0,-497.04
348316.5776,96.99,51.118,1010.465,-78.75,2555.0,-1032.5,69.92,-156.56,-507.68
348316.6276,103.029,56.913,1010.404,148.75,2791.25,-315.0,71.44,-165.68,-483.36
348316.6776,98.149,56.791,1008.696,-253.75,3272.5,-586.25,65.36,-158.08,-487.92
348316.7276,97.356,55.754,1008.513,-612.5,2861.25,-1181.25,71.44,-159.6,-498.56
348316.7776,97.417,54.351,1010.953,-507.5,3010.0,-708.75,76.0,-153.52,-490.96
348316.8276,96.014,48.739,1014.43,-43.75,2800.0,-393.75,65.36,-158.08,-500.08
348316.8776,94.489,52.155,1013.759,271.25,2642.5,-638.75,74.48,-156.56,-506.16
348316.9276,100.406,50.142,1012.234,271.25,3001.25,-700.0,59.28,-158.08,-495.52
348316.9776,100.528,60.756,1008.818,1496.25,3631.25,-673.75,79.04,-162.64,-489.44
348317.0276,92.781,67.71,1009.306,-306.25,3080.0,-918.75,65.36,-165.68,-494.0
348317.0776,98.515,52.216,1008.513,-945.0,2756.25,-796.25,62.32,-156.56,-498.56
348317.1276,96.075,52.033,1010.953,-533.75,3088.75,-210.0,82.08,-159.6,-489.44
348317.1776,100.101,49.349,1010.465,-8.75,3027.5,-525.0,63.84,-158.08,-498.56
348317.2276,104.859,58.621,1008.269,1268.75,3150.0,-892.5,57.76,-150.48,-513.76
348317.2776,95.343,65.575,1007.537,87.5,3613.75,-612.5,63.84,-152.0,-498.56
348317.3276,91.805,61.976,1010.709,-822.5,2835.0,-1050.0,69.92,-159.6,-492.48
348317.3776,100.284,57.645,1009.794,-717.5,2852.5,-813.75,57.76,-168.72,-481.84
348317.4276,97.478,52.887,1011.868,-498.75,3071.25,8.75,69.92,-150.48,-503.12
348317.4776,95.16,52.948,1011.624,-192.5,3018.75,-743.75,79.04,-159.6,-489.44
348317.5276,95.77,53.863,1008.818,-778.75,2826.25,-455.0,47.12,-159.6,-492.48
348317.5776,95.587,48.8,1010.953,105.0,2817.5,-463.75,74.48,-156.56,-503.12
348317.6276,96.868,50.325,1011.746,-192.5,2668.75,-420.0,63.84,-168.72,-500.08
348317.6776,101.443,49.837,1010.77,332.5,2861.25,-682.5,66.88,-161.12,-484.88
348317.7276,100.894,51.911,1009.001,630.0,2983.75,-1032.5,63.84,-158.08,-489.44
348317.7776,103.09,61.61,1010.526,218.75,3666.25,-1198.75,68.4,-156.56,-489.44
348317.8276,94.611,51.545,1008.879,-761.25,3202.5,-953.75,72.96,-158.08,-489.44
348317.8776,94.916,47.214,1009.794,-131.25,2896.25,-735.0,71.44,-150.48,-489.44
348317.9276,97.661,51.85,1011.014,498.75,2572.5,-113.75,68.4,-161.12,-503.12
348317.9776,98.271,53.985,1013.942,700.0,2485.0,-280.0,69.92,-170.24,-490.96
348318.0276,96.38,65.819,1006.805,245.0,3412.5,-840.0,62.32,-150.48,-481.84
348318.0776,94.001,60.146,1009.916,-743.75,2668.75,-525.0,62.32,-156.56,-498.56
348318.1276,98.942,54.717,1009.55,-542.5,2870.0,-507.5,59.28,-164.16,-509.2
348318.1776,100.467,53.741,1008.879,-122.5,3123.75,-175.0,60.8,-153.52,-490.96
348318.2276,97.356,53.619,1011.502,-341.25,3552.5,-831.25,66.88,-152.0,-490.96
348318.2776,96.38,55.022,1011.624,-350.0,3001.25,-1417.5,74.48,-152.0,-478.8
348318.3276,93.635,50.447,1009.062,-796.25,3202.5,-612.5,86.64,-162.64,-497.04
348318.3776,92.354,48.434,1010.038,-743.75,2747.5,-525.0,69.92,-152.0,-498.56
348318.4276,100.162,44.408,1012.783,218.75,2380.0,-673.75,62.32,-150.48,-489.44
348318.4776,98.515,47.885,1011.99,612.5,3036.25,-665.0,62.32,-155.04,-506.16
348318.5276,100.894,55.388,1010.709,1286.25,3001.25,-1102.5,62.32,-155.04,-466.64
348318.5776,95.404,57.401,1009.794,-481.25,2940.0,-752.5,71.44,-156.56,-497.04
348318.6276,97.112,51.179,1008.574,-743.75,3080.0,-603.75,57.76,-158.08,-495.52
348318.6776,95.709,47.946,1011.258,201.25,2695.0,-630.0,80.56,-156.56,-495.52
348318.7276,98.027,54.351,1005.768,-70.0,2931.25,-787.5,57.76,-158.08,-490.96
348318.7776,101.687,56.852,1008.818,752.5,3123.75,-1137.5,63.84,-156.56,-494.0
348318.8276,88.694,61.305,1008.208,-717.5,2905.0,-883.75,69.92,-156.56,-490.96
348318.8776,94.855,51.362,1009.733,-743.75,2275.0,-560.0,79.04,-158.08,-490.96
348318.9276,101.504,48.678,1011.502,78.75,2870.0,-87.5,56.24,-144.4,-495.52
348318.9776,98.881,51.24,1011.441,306.25,3211.25,-402.5,53.2,-156.56,-498.56
348319.0276,96.563,53.924,1011.624,-210.0,3027.5,-971.25,68.4,-139.84,-481.84
348319.0776,96.441,51.423,1010.709,-393.75,3123.75,-682.5,63.84,-167.2,-501.6
348319.1276,92.903,48.739,1009.794,-411.25,2896.25,-848.75,76.0,-165.68,-481.84
348319.1776,98.027,46.97,1012.417,148.75,2572.5,-822.5,74.48,-148.96,-497.04
348319.2276,101.382,44.53,1011.807,192.5,2625.0,-420.0,66.88,-162.64,-487.92
348319.2779,102.785,49.532,1008.391,1233.75,2791.25,-516.25,48.64,-168.72,-489.44
348319.3276,97.051,61.427,1009.306,420.0,3395.0,-831.25,71.44,-156.56,-495.52
348319.3777,92.537,53.436,1007.781,-612.5,2738.75,-1093.75,79.04,-155.04,-484.88
348319.4276,97.356,47.946,1011.014,-183.75,2721.25,-525.0,66.88,-152.0,-484.88
348319.4776,101.992,48.617,1012.051,673.75,2712.5,-481.25,63.84,-145.92,-507.68
348319.5276,102.053,56.364,1008.574,770.0,2695.0,-866.25,69.92,-158.08,-487.92
348319.5776,98.698,58.499,1008.513,-8.75,3692.5,-700.0,53.2,-158.08,-487.92
348319.6276,95.648,55.571,1009.306,-70.0,2511.25,-1015.0,68.4,-159.6,-486.4
348319.6776,100.65,55.205,1009.001,35.0,2800.0,-481.25,57.76,-155.04,-498.56
348319.7276,102.48,53.985,1010.526,-35.0,3167.5,-175.0,74.48,-153.52,-477.28
348319.7776,96.685,52.643,1012.173,-490.0,3193.75,-1190.0,59.28,-158.08,-495.52
348319.8276,99.369,50.142,1007.659,-341.25,3106.25,-1128.75,56.24,-156.56,-498.56
348319.8776,93.696,52.033,1009.062,-201.25,2852.5,-437.5,77.52,-150.48,-484.88
348319.9276,98.21,47.641,1009.245,-61.25,2450.0,-638.75,63.84,-155.04,-480.32
348319.9776,101.504,47.641,1013.027,192.5,2948.75,-428.75,63.84,-153.52,-494.0
348320.0276,104.005,49.349,1008.696,1688.75,3202.5,-1006.25,71.44,-161.12,-497.04
348320.0776,95.282,62.525,1011.563,1093.75,3377.5,-1496.25,72.96,-152.0,-472.72
348320.1276,95.77,56.913,1011.38,-288.75,2791.25,-1137.5,72.96,-159.6,-506.16
348320.1776,93.269,55.022,1009.672,192.5,2966.25,-253.75,60.8,-153.52,-503.12
348320.2276,96.624,56.425,1011.136,148.75,2572.5,-498.75,68.4,-158.08,-507.68
348320.2776,99.735,56.73,1010.648,752.5,2651.25,-813.75,59.28,-155.04,-475.76
348320.3276,97.539,62.464,1008.513,-157.5,3220.0,-691.25,62.32,-155.04,-494.0
348320.3776,94.306,54.107,1009.184,-805.0,2397.5,-691.25,80.56,-162.64,-489.44
348320.4276,104.615,52.155,1013.088,-17.5,2485.0,-43.75,60.8,-156.56,-489.44
348320.4776,106.201,53.863,1010.465,78.75,3228.75,-43.75,59.28,-162.64,-494.0
348320.5276,97.295,50.508,1008.94,-402.5,3045.0,-1312.5,69.92,-161.12,-481.84
348320.5776,97.173,51.728,1011.258,0.0,2852.5,-1225.0,69.92,-153.52,-495.52
348320.6276,97.661,49.898,1010.282,-210.0,2878.75,-131.25,77.52,-153.52,-486.4
348320.6776,99.43,49.227,1011.319,87.5,2668.75,-175.0,68.4,-155.04,-503.12
348320.7276,99.064,49.898,1009.062,1802.5,2590.0,-796.25,83.6,-150.48,-494.0
348320.7776,98.454,66.734,1005.707,586.25,3596.25,-1111.25,63.84,-148.96,-487.92
348320.8276,93.757,63.806,1008.757,-1085.0,3263.75,-1006.25,56.24,-156.56,-490.96
348320.8776,93.818,50.447,1008.818,-498.75,3045.0,-848.75,66.88,-145.92,-503.12
348320.9276,95.465,50.813,1011.868,-551.25,2703.75,-323.75,72.96,-155.04,-487.92
348320.9776,101.016,53.863,1009.611,367.5,2467.5,-192.5,66.88,-171.76,-494.0
348321.0276,96.258,58.072,1011.868,-78.75,3771.25,-525.0,48.64,-156.56,-501.6
348321.0776,92.293,54.595,1011.685,-805.0,2835.0,-883.75,74.48,-158.08,-490.96
348321.1276,99.186,47.214,1008.879,26.25,2528.75,-857.5,66.88,-153.52,-489.44
348321.1776,101.626,52.216,1009.489,367.5,3010.0,-35.0,68.4,-158.08,-483.36
348321.2276,95.465,53.985,1010.953,-35.0,3211.25,-568.75,74.48,-156.56,-490.96
348321.2776,97.661,53.375,1009.428,-157.5,2870.0,-1137.5,65.36,-159.6,-484.88
348321.3276,96.258,50.569,1010.404,-288.75,3150.0,-446.25,65.36,-156.56,-483.36
348321.3776,96.685,50.081,1010.099,122.5,2948.75,-341.25,65.36,-162.64,-487.92
348321.4276,101.687,51.972,1007.049,953.75,2388.75,-490.0,69.92,-155.04,-494.0
348321.4776,103.639,62.403,1009.489,280.0,3351.25,-717.5,68.4,-150.48,-487.92
348321.5276,94.123,49.593,1009.916,-1006.25,2887.5,-1093.75,50.16,-141.36,-494.0
348321.5776,94.428,46.543,1006.256,-682.5,2922.5,-1268.75,80.56,-150.48,-494.0
348321.6276,97.417,49.288,1013.576,752.5,2730.0,-341.25,72.96,-153.52,-489.44
348321.6776,97.356,52.399,1012.661,726.25,2415.0,-201.25,62.32,-158.08,-495.52
348321.7276,102.968,57.523,1011.441,656.25,3640.0,-831.25,57.76,-155.04,-494.0
348321.7776,91.988,57.706,1010.282,-350.0,2703.75,-1426.25,65.36,-153.52,-490.96
348321.8276,99.43,52.216,1011.319,-350.0,2931.25,-1207.5,71.44,-159.6,-487.92
348321.8776,100.162,51.911,1008.818,35.0,3010.0,-140.0,69.92,-155.04,-481.84
348321.9276,96.624,50.264,1008.818,-122.5,2852.5,-691.25,83.6,-159.6,-490.96
348321.9776,97.112,50.508,1011.502,-26.25,2791.25,-1137.5,59.28,-147.44,-468.16
348322.0276,96.807,53.985,1010.709,-227.5,2983.75,-866.25,63.84,-173.28,-501.6
348322.0776,95.343,47.031,1011.624,-113.75,2677.5,-752.5,69.92,-152.0,-490.96
348322.1276,100.833,48.129,1011.502,673.75,2765.0,-691.25,83.6,-173.28,-494.0
348322.1776,102.48,53.375,1008.208,1076.25,3298.75,-752.5,68.4,-155.04,-500.08
348322.2276,91.622,53.985,1010.343,-603.75,3123.75,-1190.0,57.76,-159.6,-509.2
348322.2776,99.43,52.582,1009.306,-367.5,2931.25,-1120.0,76.0,-152.0,-500.08
348322.3276,97.234,46.909,1008.94,280.0,2835.0,-455.0,66.88,-152.0,-486.4
348322.3776,96.014,56.974,1010.648,1032.5,2441.25,-612.5,69.92,-150.48,-500.08
348322.4276,104.676,57.401,1006.988,953.75,2922.5,-752.5,69.92,-155.04,-498.56
348322.4776,91.866,58.316,1009.794,-420.0,2686.25,-962.5,74.48,-161.12,-490.96
348322.5276,97.478,52.826,1008.086,-297.5,2283.75,-980.0,65.36,-161.12,-484.88
348322.5776,100.101,51.484,1009.611,-87.5,3123.75,-52.5,68.4,-155.04,-486.4
348322.6277,99.308,54.656,1008.513,-498.75,3281.25,-805.0,82.08,-156.56,-487.92
348322.6776,98.149,51.362,1008.879,-280.0,3202.5,-1190.0,63.84,-150.48,-486.4
348322.7277,96.136,55.205,1007.964,-656.25,3132.5,-840.0,59.28,-159.6,-504.64
348322.7776,95.648,47.702,1014.003,-586.25,2782.5,-358.75,74.48,-145.92,-489.44
348322.8276,98.515,44.652,1014.186,17.5,3053.75,-26.25,68.4,-148.96,-489.44
348322.8776,103.7,53.192,1007.598,1155.0,3193.75,-980.0,63.84,-158.08,-497.04
348322.9276,94.733,60.695,1012.417,-61.25,3298.75,-1190.0,62.32,-156.56,-503.12
348322.9776,93.513,51.423,1009.306,-595.0,2791.25,-1032.5,62.32,-164.16,-495.52
348323.0276,92.659,48.312,1011.258,-8.75,2773.75,-621.25,54.72,-150.48,-484.88
348323.0776,99.064,52.887,1009.367,-463.75,2660.0,-210.0,65.36,-161.12,-487.92
348323.1276,105.896,50.264,1011.807,656.25,3097.5,-516.25,82.08,-161.12,-490.96
348323.1776,93.757,53.314,1014.003,393.75,3473.75,-1111.25,83.6,-155.04,-494.0
348323.2276,97.356,53.497,1008.94,-43.75,2616.25,-1470.0,56.24,-158.08,-494.0
348323.2776,96.685,55.022,1008.94,306.25,2791.25,-551.25,45.6,-144.4,-513.76
348323.3276,101.016,57.401,1009.245,-61.25,3080.0,-52.5,72.96,-158.08,-490.96
348323.3776,96.136,53.497,1009.428,-332.5,2975.0,-752.5,62.32,-156.56,-478.8
348323.4276,96.502,52.643,1010.77,-262.5,2826.25,-673.75,65.36,-152.0,-512.24
348323.4776,95.282,45.628,1009.55,-498.75,2747.5,-472.5,57.76,-148.96,-497.04
348323.5276,98.088,46.787,1013.515,140.0,2773.75,-498.75,65.36,-161.12,-487.92
348323.5776,104.92,47.824,1007.537,1303.75,3106.25,8.75,59.28,-159.6,-506.16
348323.6276,103.883,55.937,1009.123,1785.0,4033.75,-122.5,48.64,-158.08,-501.6
348323.6776,90.951,54.473,1006.927,52.5,3080.0,-1417.5,65.36,-159.6,-486.4
348323.7276,98.393,54.412,1010.587,455.0,2948.75,-1268.75,66.88,-161.12,-472.72
348323.7776,95.587,54.839,1011.136,358.75,2843.75,-481.25,66.88,-161.12,-498.56
348323.8276,93.086,57.096,1009.001,323.75,1942.5,-717.5,62.32,-153.52,-500.08
348323.8776,103.761,61.061,1009.611,105.0,2826.25,-490.0,68.4,-156.56,-487.92
348323.9276,94.489,57.462,1011.624,-402.5,2983.75,-988.75,59.28,-158.08,-503.12
348323.9776,97.173,49.837,1011.868,-166.25,2397.5,-1233.75,74.48,-158.08,-495.52
348324.0276,98.088,52.399,1009.001,96.25,2861.25,-43.75,71.44,-161.12,-477.28
348324.0776,94.55,54.351,1010.343,-262.5,3421.25,-43.75,60.8,-155.04,-486.4
348324.1276,95.282,52.155,1010.648,-105.0,2581.25,-980.0,60.8,-161.12,-495.52
348324.1776,100.589,51.484,1008.147,-813.75,3106.25,-752.5,60.8,-159.6,-501.6
348324.2276,95.892,46.482,1013.454,-157.5,2572.5,-708.75,63.84,-158.08,-487.92
348324.2776,98.332,45.506,1013.149,183.75,2940.0,-761.25,68.4,-144.4,-498.56
348324.3276,103.883,54.595,1007.171,1338.75,3097.5,-665.0,59.28,-155.04,-494.0
348324.3776,97.539,64.233,1009.184,402.5,3316.25,-848.75,71.44,-162.64,-478.8
348324.4276,95.404,54.107,1007.293,-560.0,2747.5,-892.5,45.6,-152.0,-501.6
348324.4776,95.526,48.617,1011.014,586.25,2852.5,-455.0,62.32,-155.04,-503.12
348324.5276,100.284,57.035,1010.343,638.75,2712.5,-323.75,68.4,-168.72,-489.44
348324.5776,104.554,56.181,1006.622,1015.0,3097.5,-525.0,69.92,-168.72,-483.36
348324.6276,95.465,62.586,1010.526,183.75,3587.5,-796.25,60.8,-156.56,-500.08
348324.6776,100.284,56.791,1010.953,-603.75,2835.0,-1015.0,69.92,-152.0,-498.56
348324.7276,97.539,53.07,1009.123,-43.75,3185.0,-358.75,66.88,-161.12,-478.8
348324.7776,98.332,54.29,1011.563,-131.25,3307.5,-656.25,59.28,-162.64,-489.44
348324.8276,92.232,52.765,1009.184,-61.25,2992.5,-1050.0,60.8,-153.52,-500.08
348324.8776,96.319,53.619,1009.489,-166.25,2878.75,-761.25,80.56,-161.12,-503.12
348324.9276,97.6,53.741,1007.293,-455.0,2747.5,-17.5,79.04,-168.72,-484.88
348324.9776,98.393,52.277,1009.428,-148.75,2616.25,-210.0,57.76,-156.56,-504.64
348325.0276,102.053,55.632,1011.136,673.75,2817.5,-428.75,71.44,-152.0,-500.08
348325.0776,101.443,58.621,1009.123,-70.0,3543.75,-1233.75,72.96,-155.04,-465.12
348325.1276,94.977,54.412,1009.062,-1111.25,2992.5,-1163.75,62.32,-168.72,-503.12
348325.1776,98.271,42.822,1009.855,-43.75,3088.75,-647.5,77.52,-158.08,-503.12
348325.2276,99.979,49.349,1014.186,1181.25,3080.0,-568.75,71.44,-145.92,-489.44
348325.2776,97.173,57.401,1009.306,603.75,2870.0,-1181.25,77.52,-158.08,-484.88
348325.3276,96.136,63.379,1009.489,315.0,3508.75,-1198.75,59.28,-168.72,-490.96
348325.3776,88.999,65.026,1009.001,-516.25,2843.75,-962.5,60.8,-168.72,-504.64
348325.4276,95.16,52.399,1010.282,-525.0,2835.0,-455.0,79.04,-153.52,-489.44
348325.4776,97.173,53.375,1011.441,-341.25,2721.25,245.0,57.76,-156.56,-494.0
348325.5276,96.197,54.595,1010.343,-288.75,2905.0,-551.25,53.2,-161.12,-507.68
348325.5776,95.16,51.423,1007.476,-218.75,2730.0,-1400.0,63.84,-155.04,-490.96
348325.6276,94.611,50.874,1011.258,-560.0,2590.0,-1575.0,57.76,-158.08,-500.08
348325.6776,98.942,48.068,1010.221,-201.25,2248.75,-542.5,56.24,-153.52,-513.76
348325.7276,100.04,48.312,1013.393,-96.25,2878.75,411.25,65.36,-167.2,-495.52
348325.7776,101.687,53.741,1010.404,1321.25,2808.75,-481.25,68.4,-161.12,-484.88
348325.8276,97.844,56.913,1011.014,-577.5,3027.5,-988.75,69.92,-156.56,-483.36
348325.8778,99.796,52.338,1009.123,-533.75,3027.5,-673.75,63.84,-159.6,-495.52
348325.9276,92.659,50.02,1011.441,52.5,2887.5,-542.5,71.44,-148.96,-490.96
348325.9777,101.87,52.948,1010.648,201.25,2756.25,-507.5,65.36,-162.64,-487.92
348326.0276,104.493,52.887,1007.72,1093.75,2695.0,-918.75,57.76,-158.08,-498.56
348326.0777,96.075,59.597,1010.526,-96.25,3097.5,-971.25,82.08,-155.04,-490.96
348326.1276,96.685,55.51,1008.269,-236.25,2642.5,-857.5,63.84,-165.68,-483.36
348326.1776,101.138,53.68,1008.269,-350.0,2835.0,-332.5,63.84,-152.0,-490.96
348326.2276,101.992,57.462,1009.733,-288.75,3202.5,-472.5,72.96,-159.6,-504.64
348326.2776,96.807,52.277,1009.062,-551.25,3403.75,-1146.25,72.96,-159.6,-481.84
348326.3276,95.282,51.24,1011.624,-105.0,2905.0,-1417.5,59.28,-152.0,-495.52
348326.3776,93.452,48.861,1009.184,-533.75,2852.5,-551.25,69.92,-161.12,-510.72
348326.4276,99.186,49.715,1011.319,218.75,2730.0,-157.5,69.92,-148.96,-497.04
348326.4776,99.186,48.373,1010.587,665.0,2703.75,-603.75,69.92,-158.08,-480.32
348326.5276,103.456,58.255,1006.683,621.25,3692.5,-1120.0,59.28,-150.48,-480.32
348326.5776,96.807,56.669,1009.184,-385.0,3473.75,-1356.25,63.84,-144.4,-495.52
348326.6276,97.478,49.288,1008.635,-271.25,2695.0,-1172.5,76.0,-148.96,-481.84
348326.6776,97.661,50.081,1012.112,341.25,2791.25,-253.75,65.36,-165.68,-500.08
348326.7276,96.929,53.497,1012.356,315.0,2572.5,-857.5,60.8,-161.12,-490.96
348326.7776,101.077,56.059,1012.966,87.5,3263.75,-1478.75,82.08,-158.08,-483.36
348326.8276,95.587,59.109,1009.611,-43.75,3123.75,-1093.75,71.44,-156.56,-498.56
348326.8776,95.709,57.096,1010.282,-752.5,2528.75,-892.5,65.36,-155.04,-497.04
348326.9276,100.528,51.24,1009.367,-157.5,2826.25,-490.0,57.76,-158.08,-497.04
348326.9776,101.565,54.778,1009.245,70.0,3246.25,-551.25,82.08,-156.56,-490.96
348327.0276,95.404,54.595,1009.123,-490.0,3185.0,-901.25,47.12,-161.12,-486.4
348327.0776,93.391,53.07,1009.062,-1076.25,3176.25,-621.25,63.84,-153.52,-500.08
348327.1276,95.16,45.506,1015.162,-673.75,2642.5,-26.25,72.96,-165.68,-498.56
