TimeStamp,ax,ay,az,gx,gy,gz,mx,my,mz
348523.2776,49.349,154.757,1007.476,411.25,1548.75,-848.75,66.88,-221.92,-509.2
348523.3276,58.865,156.282,1001.681,-1408.75,2108.75,-1137.5,77.52,-224.96,-503.12
348523.3776,46.36,154.086,1005.036,-971.25,2397.5,2091.25,88.16,-212.8,-515.28
348523.4276,46.787,159.515,1003.328,-787.5,901.25,848.75,66.88,-217.36,-489.44
348523.4776,67.588,150.487,1000.583,-883.75,218.75,8.75,66.88,-215.84,-509.2
348523.5276,69.174,164.029,1004.487,-507.5,1330.0,148.75,63.84,-217.36,-509.2
348523.5776,70.089,161.406,999.302,-2012.5,1697.5,761.25,77.52,-226.48,-504.64
348523.6276,68.991,145.424,1000.156,-2747.5,3071.25,253.75,74.48,-217.36,-503.12
348523.6776,62.83,150.792,1002.535,-3255.0,3858.75,105.0,66.88,-206.72,-503.12
348523.7276,57.584,142.496,1000.583,-4672.5,3718.75,1435.0,76.0,-218.88,-504.64
348523.7776,57.279,129.015,1005.707,-5897.5,4112.5,1181.25,68.4,-211.28,-500.08
348523.8276,47.763,108.153,1009.733,-3543.75,2222.5,253.75,82.08,-208.24,-507.68
348523.8776,64.477,113.216,1007.171,-691.25,481.25,-1338.75,76.0,-206.72,-501.6
348523.9276,68.381,123.952,1006.622,481.25,700.0,-1846.25,69.92,-205.2,-497.04
348523.9776,71.919,135.542,1005.646,-1006.25,1443.75,-1715.0,68.4,-205.2,-512.24
348524.0276,73.505,131.272,1005.829,-2030.0,2747.5,-901.25,68.4,-206.72,-518.32
348524.0776,71.37,129.747,1006.561,-1286.25,2765.0,-560.0,82.08,-203.68,-510.72
348524.1276,68.686,110.227,1005.219,-700.0,2423.75,-1548.75,71.44,-205.2,-495.52
348524.1776,73.749,117.608,1006.073,1076.25,2275.0,-2765.0,62.32,-212.8,-507.68
348524.2276,66.124,121.573,1006.683,761.25,3858.75,-1111.25,74.48,-205.2,-504.64
348524.2776,55.937,130.235,1002.474,306.25,2292.5,-1111.25,72.96,-215.84,-487.92
348524.3276,63.135,129.503,1006.622,-875.0,1715.0,402.5,74.48,-211.28,-500.08
348524.3776,71.187,120.231,1004.609,402.5,1986.25,1207.5,65.36,-209.76,-509.2
348524.4276,95.892,130.052,1012.783,463.75,1610.0,1802.5,71.44,-196.08,-483.36
348524.4776,96.319,85.522,1006.012,-673.75,6991.25,4296.25,74.48,-211.28,-503.12
348524.5276,61.244,94.916,1008.086,4252.5,4908.75,-315.0,59.28,-202.16,-509.2
348524.5776,61.244,134.749,997.655,4812.5,4690.0,-2441.25,77.52,-203.68,-503.12
348524.6276,47.946,147.803,1005.158,1916.25,4025.0,-113.75,69.92,-203.68,-507.68
348524.6776,52.216,152.561,1005.219,1522.5,3438.75,306.25,62.32,-211.28,-509.2
348524.7276,51.667,149.389,1005.646,2021.25,927.5,-2283.75,77.52,-206.72,-512.24
348524.7776,72.346,149.816,1003.755,-52.5,962.5,-2117.5,71.44,-211.28,-503.12
348524.8276,59.963,138.47,1005.097,-78.75,1828.75,507.5,68.4,-215.84,-487.92
348524.8776,68.686,148.962,1005.036,-603.75,1916.25,3797.5,62.32,-215.84,-509.2
348524.9276,67.588,134.749,1003.694,1146.25,2292.5,4278.75,71.44,-208.24,-492.48
348524.9776,69.174,135.054,1008.818,892.5,2100.0,3456.25,69.92,-215.84,-492.48
348525.0276,77.897,128.527,1001.498,2205.0,2073.75,2240.0,62.32,-203.68,-509.2
348525.0776,78.629,144.326,998.814,1653.75,1365.0,-192.5,79.04,-206.72,-510.72
348525.1276,78.69,151.28,994.91,2030.0,787.5,-218.75,77.52,-212.8,-503.12
348525.1776,82.411,175.192,990.823,-1216.25,1592.5,-612.5,63.84,-223.44,-510.72
348525.2278,82.777,134.139,1010.282,-7087.5,2686.25,-647.5,48.64,-212.8,-504.64
348525.2776,75.457,101.809,1018.212,-2826.25,1601.25,-2266.25,69.92,-205.2,-509.2
348525.3277,88.267,114.436,1008.147,2327.5,1968.75,-2537.5,68.4,-209.76,-486.4
348525.3776,75.884,137.616,1000.583,2695.0,1618.75,-1592.5,59.28,-194.56,-503.12
348525.4278,82.899,143.411,1001.986,2047.5,2152.5,-1408.75,69.92,-211.28,-495.52
348525.4776,84.607,150.365,1001.864,3526.25,2152.5,-1846.25,68.4,-212.8,-503.12
348525.5276,86.498,158.417,1000.278,1286.25,3071.25,-2738.75,51.68,-209.76,-503.12
348525.5776,72.468,147.315,1004.365,105.0,2441.25,-2528.75,53.2,-209.76,-510.72
348525.6276,81.13,124.44,1006.012,210.0,717.5,-2511.25,74.48,-208.24,-512.24
348525.6776,100.345,130.601,1001.376,3010.0,2493.75,-1312.5,62.32,-212.8,-503.12
348525.7276,96.807,158.966,998.082,4366.25,4803.75,-96.25,65.36,-228.0,-489.44
348525.7776,74.847,179.645,1001.01,2537.5,4742.5,-323.75,79.04,-208.24,-504.64
348525.8276,78.324,160.674,999.302,78.75,2975.0,-472.5,74.48,-231.04,-507.68
348525.8776,80.154,159.82,1002.535,-122.5,3263.75,-743.75,65.36,-206.72,-506.16
348525.9276,80.764,148.352,1002.413,-1575.0,3307.5,-1295.0,51.68,-212.8,-509.2
348525.9776,73.444,149.267,1007.781,-105.0,2660.0,-2555.0,72.96,-218.88,-495.52
348526.0276,74.481,143.411,1004.182,-1120.0,2065.0,-2056.25,71.44,-220.4,-504.64
348526.0776,80.154,144.753,1004.121,857.5,2248.75,-1855.0,62.32,-211.28,-509.2
348526.1276,78.324,151.402,1003.145,1093.75,2073.75,-1093.75,76.0,-221.92,-500.08
348526.1776,81.679,155.916,995.215,1032.5,1907.5,551.25,68.4,-226.48,-513.76
348526.2276,88.267,150.792,998.875,-1531.25,2660.0,1190.0,48.64,-220.4,-498.56
348526.2776,89.67,140.117,995.825,-2170.0,2966.25,376.25,74.48,-211.28,-497.04
348526.3276,89.67,136.945,1008.757,-61.25,3018.75,-1513.75,77.52,-211.28,-503.12
348526.3776,87.84,142.618,1003.328,542.5,4138.75,-2450.0,72.96,-224.96,-490.96
348526.4276,80.52,154.452,1002.169,1111.25,4068.75,-3290.0,50.16,-205.2,-504.64
348526.4776,84.119,155.489,1003.267,-525.0,2651.25,-1102.5,66.88,-212.8,-512.24
348526.5276,77.531,148.718,1001.193,1076.25,3123.75,157.5,79.04,-237.12,-497.04
348526.5776,81.74,160.857,997.472,-1426.25,2791.25,525.0,71.44,-220.4,-497.04
348526.6276,81.008,151.158,1001.742,-840.0,2493.75,78.75,68.4,-214.32,-495.52
348526.6776,86.254,149.328,1001.437,-218.75,1872.5,-61.25,69.92,-212.8,-504.64
348526.7276,86.01,152.744,999.546,-778.75,3605.0,551.25,48.64,-214.32,-495.52
348526.7776,78.934,148.901,1007.476,-2511.25,3701.25,1120.0,71.44,-215.84,-503.12
348526.8276,77.714,133.834,1001.132,-1995.0,3202.5,805.0,62.32,-211.28,-503.12
348526.8776,80.825,130.418,1000.278,-752.5,2555.0,638.75,68.4,-211.28,-492.48
348526.9276,76.372,135.115,1008.452,341.25,2187.5,-26.25,51.68,-211.28,-486.4
348526.9776,95.404,145.546,997.411,971.25,3473.75,-1566.25,69.92,-206.72,-510.72
348527.0276,72.895,158.417,1005.585,-936.25,3211.25,-2196.25,74.48,-217.36,-490.96
348527.0776,88.938,133.346,999.119,-1058.75,2170.0,-2703.75,66.88,-212.8,-495.52
348527.1276,98.21,143.899,1001.559,17.5,2843.75,-2266.25,60.8,-208.24,-506.16
348527.1776,77.958,144.997,1005.28,-673.75,3587.5,-2082.5,69.92,-212.8,-478.8
348527.2276,79.727,144.631,1005.951,-262.5,3211.25,-2091.25,68.4,-220.4,-501.6
348527.2776,81.923,141.642,1000.888,805.0,2520.0,-1268.75,60.8,-212.8,-509.2
348527.3276,90.463,144.509,995.764,-1338.75,3150.0,61.25,79.04,-211.28,-495.52
348527.3776,87.169,140.788,997.533,-306.25,3010.0,-761.25,59.28,-209.76,-500.08
348527.4276,74.115,141.764,1005.463,-2651.25,3771.25,-673.75,50.16,-202.16,-500.08
348527.4776,74.603,129.808,1001.01,-2292.5,2135.0,-280.0,59.28,-206.72,-504.64
348527.5276,79.3,124.257,1007.232,-1373.75,2590.0,-455.0,69.92,-199.12,-494.0
348527.5776,85.766,127.978,1006.866,-166.25,2450.0,166.25,63.84,-203.68,-503.12
348527.6276,96.136,133.163,1002.901,1041.25,3193.75,105.0,62.32,-212.8,-501.6
348527.6776,94.855,145.973,999.18,481.25,4978.75,840.0,63.84,-206.72,-487.92
348527.7276,78.141,139.202,1000.034,-245.0,5311.25,481.25,56.24,-208.24,-501.6
348527.7776,82.716,138.226,1004.426,-1443.75,4270.0,-533.75,59.28,-206.72,-506.16
348527.8276,79.3,133.59,1007.11,-1382.5,3036.25,-1566.25,71.44,-211.28,-494.0
348527.8776,81.923,130.296,1004.06,-1295.0,3823.75,-1400.0,74.48,-212.8,-492.48
348527.9276,82.289,130.967,1001.01,-78.75,4655.0,1023.75,68.4,-199.12,-513.76
348527.9776,63.44,130.174,1008.757,-245.0,4830.0,420.0,74.48,-206.72,-503.12
348528.0276,78.385,132.736,1005.585,-875.0,1680.0,-2091.25,79.04,-209.76,-494.0
348528.0776,95.648,129.381,999.851,-1435.0,3850.0,-1321.25,71.44,-214.32,-501.6
348528.1276,73.932,127.124,1010.709,-1216.25,5530.0,-2458.75,60.8,-212.8,-490.96
348528.1776,73.932,117.669,1003.145,857.5,3176.25,-1916.25,77.52,-224.96,-500.08
348528.2276,70.577,126.27,1005.036,638.75,4235.0,-1627.5,72.96,-208.24,-494.0
348528.2776,70.028,136.335,1001.132,-612.5,3552.5,-840.0,66.88,-197.6,-513.76
348528.3276,88.45,136.579,998.692,157.5,4978.75,1303.75,69.92,-197.6,-506.16
348528.3776,79.361,136.884,1000.888,-2003.75,7393.75,1260.0,76.0,-209.76,-494.0
348528.4276,45.689,126.331,1012.905,-2143.75,4471.25,-2135.0,69.92,-203.68,-492.48
348528.4776,59.414,119.804,1010.953,-1750.0,2047.5,-2922.5,69.92,-211.28,-494.0
348528.5276,67.649,116.754,1006.073,-743.75,3508.75,-1181.25,79.04,-220.4,-504.64
348528.5776,63.989,128.222,1006.195,-700.0,3167.5,-2415.0,74.48,-212.8,-495.52
348528.6276,59.902,124.745,1004.487,-1172.5,3421.25,-2266.25,63.84,-199.12,-506.16
348528.6778,67.588,125.721,1005.28,-1872.5,3482.5,-1645.0,63.84,-214.32,-509.2
348528.7276,70.699,116.144,1007.476,-691.25,4812.5,-1023.75,83.6,-205.2,-500.08
348528.7777,46.299,114.558,1011.38,-971.25,3955.0,-831.25,68.4,-203.68,-507.68
348528.8276,52.826,113.155,1008.208,-700.0,1881.25,-1863.75,76.0,-196.08,-497.04
348528.8777,66.917,112.911,1009.123,805.0,1820.0,-1093.75,80.56,-206.72,-515.28
348528.9276,68.991,124.562,1005.829,665.0,3587.5,-1356.25,68.4,-205.2,-507.68
348528.9776,58.804,123.037,1005.219,-568.75,3316.25,-1820.0,82.08,-197.6,-494.0
348529.0276,59.78,119.011,1008.208,-848.75,2205.0,-2467.5,74.48,-203.68,-497.04
348529.0776,63.745,116.51,1004.914,-936.25,2380.0,-1470.0,80.56,-205.2,-495.52
348529.1276,58.865,119.011,1009.123,-551.25,2870.0,140.0,71.44,-200.64,-494.0
348529.1776,66.49,120.841,1008.025,385.0,2030.0,-656.25,72.96,-202.16,-504.64
348529.2276,63.745,121.085,1006.866,227.5,2765.0,-315.0,71.44,-205.2,-504.64
348529.2776,58.011,119.682,1009.733,262.5,1365.0,-1452.5,66.88,-211.28,-509.2
348529.3276,69.418,119.377,1003.328,-157.5,1758.75,-1190.0,72.96,-202.16,-501.6
348529.3776,62.281,120.292,1006.683,-875.0,2747.5,-113.75,83.6,-209.76,-504.64
348529.4276,66.124,119.499,1007.11,-665.0,1881.25,-796.25,80.56,-208.24,-497.04
348529.4776,66.49,121.756,1005.28,-1041.25,2423.75,-166.25,56.24,-209.76,-498.56
348529.5276,65.392,116.022,1008.269,-1452.5,1863.75,-35.0,72.96,-206.72,-506.16
348529.5776,71.431,108.336,1009.733,-1505.0,2038.75,376.25,74.48,-200.64,-497.04
348529.6276,68.991,102.236,1010.038,-367.5,2476.25,-52.5,69.92,-193.04,-498.56
348529.6776,67.71,102.419,1009.001,376.25,2108.75,-883.75,62.32,-206.72,-507.68
348529.7276,69.296,108.58,1009.306,1032.5,2065.0,-796.25,74.48,-202.16,-509.2
348529.7776,76.372,118.401,1008.208,770.0,2660.0,525.0,74.48,-206.72,-494.0
348529.8276,70.76,121.085,1006.988,787.5,2852.5,0.0,79.04,-205.2,-509.2
348529.8776,74.969,116.144,1003.755,-393.75,2003.75,-892.5,66.88,-206.72,-506.16
348529.9276,74.237,109.678,1006.256,-262.5,3176.25,-481.25,71.44,-193.04,-489.44
348529.9776,74.725,110.715,1004.304,341.25,2817.5,-358.75,57.76,-191.52,-492.48
348530.0276,74.054,116.449,1006.622,323.75,2467.5,-1050.0,53.2,-186.96,-516.8
348530.0776,81.008,122.427,1009.55,122.5,3351.25,-691.25,77.52,-208.24,-500.08
348530.1276,65.392,121.512,1006.5,-551.25,3517.5,-656.25,59.28,-215.84,-506.16
348530.1776,66.185,117.12,1009.001,-918.75,2423.75,-1268.75,56.24,-194.56,-495.52
348530.2276,77.531,108.275,1007.232,-910.0,3885.0,516.25,69.92,-193.04,-509.2
348530.2776,67.527,108.519,1008.025,-735.0,2835.0,-857.5,72.96,-196.08,-507.68
348530.3276,71.98,108.946,1007.049,-612.5,2712.5,-1653.75,72.96,-205.2,-495.52
348530.3776,70.089,106.933,1007.72,-131.25,2765.0,-778.75,71.44,-211.28,-510.72
348530.4276,73.871,106.506,1008.757,-96.25,2738.75,-630.0,60.8,-199.12,-498.56
348530.4776,67.344,105.53,1009.855,560.0,2878.75,-1242.5,74.48,-196.08,-501.6
348530.5276,72.346,111.813,1010.831,420.0,2485.0,-1478.75,68.4,-196.08,-501.6
348530.5776,73.566,112.301,1005.951,621.25,2957.5,-1076.25,62.32,-197.6,-506.16
348530.6276,70.455,121.146,1007.049,586.25,2966.25,-778.75,79.04,-209.76,-501.6
348530.6776,68.991,127.734,1001.986,490.0,2747.5,-1417.5,60.8,-193.04,-497.04
348530.7276,71.614,113.704,1009.55,-2082.5,1951.25,-945.0,65.36,-200.64,-495.52
348530.7776,78.141,97.112,1009.428,-1268.75,3053.75,122.5,72.96,-205.2,-509.2
348530.8276,72.529,97.966,1010.404,148.75,2467.5,-446.25,65.36,-196.08,-501.6
348530.8776,81.008,109.312,1004.609,402.5,2327.5,-1181.25,76.0,-202.16,-506.16
348530.9276,79.483,113.338,1006.744,638.75,3736.25,-1356.25,56.24,-199.12,-507.68
348530.9776,70.577,122.122,1006.561,-700.0,2826.25,-1811.25,62.32,-199.12,-507.68
348531.0276,72.041,111.752,1005.89,-1636.25,3106.25,-778.75,80.56,-199.12,-490.96
348531.0776,67.161,112.301,1008.452,-1837.5,2738.75,-306.25,69.92,-205.2,-500.08
348531.1276,77.043,97.661,1013.515,-735.0,2992.5,-700.0,65.36,-199.12,-504.64
348531.1776,72.224,98.576,1012.173,70.0,2738.75,-1645.0,69.92,-197.6,-498.56
348531.2276,72.651,110.837,1007.232,376.25,2598.75,-1645.0,66.88,-205.2,-494.0
348531.2776,73.627,109.251,1006.378,498.75,3045.0,-682.5,59.28,-202.16,-486.4
348531.3276,68.564,114.924,1003.633,-87.5,2642.5,-577.5,77.52,-205.2,-501.6
348531.3776,76.006,104.981,1010.099,-708.75,3123.75,-542.5,76.0,-202.16,-487.92
348531.4276,73.688,102.724,1011.258,-577.5,3036.25,-542.5,65.36,-211.28,-501.6
348531.4776,72.834,102.663,1009.489,533.75,2581.25,-393.75,71.44,-193.04,-494.0
348531.5276,78.995,106.201,1009.55,971.25,3482.5,-245.0,69.92,-197.6,-503.12
348531.5776,69.357,108.092,1006.866,87.5,2765.0,-551.25,79.04,-203.68,-507.68
348531.6276,74.176,103.09,1008.33,-96.25,2441.25,-770.0,71.44,-191.52,-504.64
348531.6776,75.518,102.785,1008.33,201.25,2511.25,-26.25,76.0,-197.6,-513.76
348531.7276,73.81,104.737,1010.099,393.75,2415.0,-236.25,68.4,-200.64,-494.0
348531.7776,79.727,110.288,1009.428,481.25,3141.25,-638.75,68.4,-206.72,-500.08
348531.8276,69.479,112.362,1008.086,131.25,3062.5,-481.25,59.28,-197.6,-506.16
348531.8776,73.932,108.397,1006.744,148.75,2493.75,-612.5,69.92,-202.16,-487.92
348531.9276,77.348,111.569,1006.622,157.5,2765.0,43.75,59.28,-200.64,-486.4
348531.9776,74.42,109.617,1008.147,-656.25,3167.5,78.75,66.88,-206.72,-497.04
348532.0276,74.054,104.554,1010.526,-568.75,2913.75,-918.75,74.48,-206.72,-506.16
348532.0776,78.08,105.591,1008.025,-52.5,2878.75,-805.0,72.96,-199.12,-498.56
348532.1276,73.688,104.188,1008.757,595.0,3185.0,-945.0,63.84,-194.56,-504.64
348532.1776,79.544,107.482,1008.025,306.25,2835.0,-1496.25,60.8,-191.52,-515.28
348532.2277,75.274,109.068,1006.317,-796.25,3482.5,-796.25,63.84,-196.08,-503.12
348532.2776,72.773,100.894,1008.574,-376.25,3465.0,-595.0,76.0,-190.0,-504.64
348532.3277,77.47,105.957,1007.781,1452.5,3080.0,-980.0,66.88,-194.56,-510.72
348532.3776,68.686,110.776,1008.696,551.25,3325.0,-647.5,79.04,-200.64,-498.56
348532.4276,67.039,113.094,1006.256,0.0,2598.75,-1058.75,68.4,-199.12,-506.16
348532.4776,76.738,101.565,1007.171,-612.5,2773.75,-210.0,62.32,-208.24,-503.12
348532.5284,76.128,106.262,1006.561,656.25,3018.75,175.0,76.0,-191.52,-506.16
348532.5776,81.618,110.898,1006.927,271.25,2651.25,-953.75,63.84,-209.76,-506.16
348532.6276,70.089,110.471,1009.062,245.0,3263.75,-1338.75,63.84,-203.68,-501.6
348532.6776,68.442,112.362,1006.5,-253.75,2590.0,-1295.0,76.0,-199.12,-507.68
348532.7276,74.786,104.92,1004.975,463.75,3403.75,-253.75,74.48,-202.16,-497.04
348532.7776,69.052,114.924,1011.624,1120.0,3018.75,-367.5,66.88,-191.52,-503.12
348532.8276,74.42,112.362,1008.452,-735.0,1933.75,-1925.0,69.92,-205.2,-513.76
348532.8776,80.398,111.935,1005.585,-1198.75,2642.5,-1487.5,66.88,-206.72,-495.52
348532.9276,76.006,102.419,1009.062,-1400.0,3228.75,-201.25,53.2,-203.68,-487.92
348532.9776,77.897,102.236,1010.953,26.25,2878.75,-271.25,71.44,-203.68,-501.6
348533.0276,81.191,96.319,1009.245,245.0,3298.75,-87.5,76.0,-202.16,-501.6
348533.0776,81.557,108.763,1007.293,2703.75,4453.75,245.0,60.8,-193.04,-494.0
348533.1276,83.265,121.573,1000.705,1610.0,5372.5,-8.75,66.88,-196.08,-504.64
348533.1776,58.194,119.316,1004.548,-717.5,5906.25,-2581.25,66.88,-205.2,-484.88
348533.2276,62.403,107.848,1010.831,-1373.75,3465.0,-2108.75,82.08,-208.24,-503.12
348533.2776,65.087,100.528,1010.343,-376.25,3421.25,-708.75,62.32,-197.6,-501.6
348533.3276,59.597,107.055,1010.709,1610.0,1925.0,-577.5,76.0,-199.12,-503.12
348533.3776,74.054,111.63,1004.853,1697.5,2213.75,-840.0,74.48,-208.24,-497.04
348533.4276,64.294,122.61,1005.341,131.25,2642.5,-665.0,66.88,-211.28,-495.52
348533.4776,77.409,113.338,1009.794,-385.0,2563.75,-577.5,65.36,-208.24,-506.16
348533.5276,76.677,113.887,1008.086,78.75,3683.75,428.75,66.88,-196.08,-503.12
348533.5776,66.734,111.691,1008.33,70.0,3701.25,-1067.5,71.44,-200.64,-503.12
348533.6276,65.026,113.765,1006.073,-350.0,2957.5,-1636.25,66.88,-205.2,-503.12
348533.6776,61.366,111.935,1007.049,-1032.5,3430.0,-560.0,72.96,-202.16,-507.68
348533.7276,59.78,103.883,1010.892,-918.75,2091.25,-113.75,82.08,-200.64,-492.48
348533.7776,66.307,105.469,1011.563,-507.5,2240.0,-61.25,68.4,-203.68,-500.08
348533.8276,73.261,104.188,1009.428,280.0,2240.0,0.0,60.8,-203.68,-512.24
348533.8776,72.651,109.861,1007.11,691.25,2835.0,17.5,72.96,-203.68,-500.08
348533.9276,67.71,106.811,1005.585,-70.0,2703.75,-560.0,74.48,-199.12,-497.04
348533.9776,77.958,107.116,1006.195,-35.0,1951.25,-743.75,60.8,-194.56,-500.08
348534.0276,79.788,107.848,1006.256,210.0,3027.5,70.0,77.52,-194.56,-501.6
348534.0776,73.322,109.8,1009.489,-43.75,3185.0,-708.75,68.4,-199.12,-497.04
348534.1276,71.248,112.423,1009.428,-140.0,3325.0,-1758.75,68.4,-205.2,-513.76
348534.1776,66.246,108.214,1007.964,-26.25,3088.75,-1680.0,91.2,-200.64,-509.2
348534.2276,68.747,110.532,1009.245,463.75,3193.75,-665.0,62.32,-197.6,-498.56
348534.2776,68.564,117.425,1003.511,393.75,3027.5,-271.25,66.88,-193.04,-500.08
348534.3276,66.124,114.314,1008.757,-822.5,2870.0,-848.75,74.48,-196.08,-509.2
348534.3776,67.527,110.959,1008.818,-866.25,2546.25,-1373.75,76.0,-200.64,-501.6
348534.4276,69.235,104.005,1006.5,-700.0,2012.5,-612.5,63.84,-202.16,-501.6
348534.4776,69.479,104.127,1007.964,-568.75,1960.0,-17.5,62.32,-188.48,-483.36
348534.5276,77.348,102.724,1011.075,393.75,2248.75,-245.0,76.0,-197.6,-506.16
348534.5776,71.004,112.545,1009.001,-148.75,3377.5,-612.5,76.0,-196.08,-495.52
348534.6276,66.551,106.994,1006.622,-656.25,2633.75,-1225.0,66.88,-197.6,-506.16
348534.6776,73.932,102.358,1007.964,-463.75,2975.0,-1242.5,71.44,-203.68,-516.8
348534.7276,72.895,99.43,1008.452,385.0,2948.75,-551.25,77.52,-199.12,-489.44
348534.7776,76.921,106.445,1012.051,-113.75,2668.75,-866.25,66.88,-196.08,-506.16
348534.8276,71.675,100.589,1009.977,595.0,4296.25,-472.5,63.84,-194.56,-501.6
348534.8776,65.697,101.199,1009.55,1653.75,2940.0,-1102.5,68.4,-202.16,-498.56
348534.9276,73.688,112.606,1006.378,840.0,2826.25,-1636.25,69.92,-206.72,-503.12
348534.9776,78.263,115.168,1006.317,577.5,3185.0,-621.25,68.4,-197.6,-484.88
348535.0276,64.843,114.314,1007.171,-402.5,3150.0,-1295.0,74.48,-206.72,-509.2
348535.0776,69.662,110.654,1006.317,-253.75,2677.5,-1268.75,69.92,-199.12,-503.12
348535.1276,69.174,106.628,1005.707,-157.5,2668.75,-796.25,68.4,-214.32,-507.68
348535.1776,73.932,107.36,1009.672,-673.75,2537.5,-157.5,89.68,-203.68,-506.16
348535.2276,75.518,105.347,1010.648,-166.25,2835.0,-402.5,76.0,-208.24,-490.96
348535.2776,70.028,113.277,1007.781,17.5,3368.75,-778.75,72.96,-186.96,-516.8
348535.3276,69.174,106.14,1005.89,-577.5,2345.0,-1260.0,65.36,-200.64,-495.52
348535.3776,75.03,103.517,1007.476,-507.5,3080.0,-498.75,76.0,-193.04,-500.08
348535.4276,69.601,104.432,1008.086,148.75,2738.75,-446.25,72.96,-205.2,-501.6
348535.4776,77.348,105.713,1011.685,271.25,2441.25,-761.25,56.24,-196.08,-487.92
348535.5276,67.405,113.033,1007.11,157.5,3570.0,-857.5,65.36,-193.04,-501.6
348535.5776,64.111,107.238,1009.001,-428.75,2423.75,-997.5,68.4,-202.16,-509.2
348535.6276,78.08,106.384,1006.073,131.25,2843.75,-525.0,60.8,-197.6,-498.56
348535.6778,72.895,108.702,1010.892,-8.75,3080.0,-52.5,60.8,-194.56,-486.4
348535.7276,73.322,106.201,1008.696,-70.0,3587.5,-910.0,72.96,-200.64,-489.44
348535.7777,66.673,108.397,1009.123,-385.0,3045.0,-1977.5,82.08,-205.2,-503.12
348535.8276,68.808,104.737,1008.269,-376.25,2695.0,-1426.25,63.84,-199.12,-513.76
348535.8776,68.442,106.689,1009.55,26.25,2555.0,-218.75,82.08,-206.72,-515.28
348535.9276,74.603,107.97,1008.452,122.5,2642.5,-288.75,79.04,-196.08,-500.08
348535.9776,74.725,111.386,1007.171,52.5,3508.75,-761.25,66.88,-197.6,-500.08
348536.0276,69.662,105.713,1009.916,-253.75,2528.75,-1120.0,62.32,-197.6,-512.24
348536.0776,70.638,104.066,1007.842,-367.5,2651.25,-901.25,71.44,-208.24,-492.48
348536.1276,72.834,103.517,1008.879,848.75,2738.75,-673.75,85.12,-202.16,-498.56
348536.1776,78.629,108.031,1009.611,945.0,2730.0,-516.25,74.48,-197.6,-518.32
348536.2276,70.699,117.181,1009.001,402.5,3412.5,-586.25,71.44,-202.16,-507.68
348536.2776,68.381,110.837,1008.086,-148.75,1680.0,-603.75,65.36,-194.56,-503.12
348536.3276,79.544,108.946,1006.744,8.75,2205.0,-962.5,66.88,-200.64,-501.6
348536.3776,73.139,111.691,1009.672,122.5,3115.0,-787.5,65.36,-209.76,-506.16
348536.4276,72.651,109.922,1010.099,-218.75,3351.25,-1155.0,74.48,-197.6,-501.6
348536.4776,71.248,107.177,1008.269,-192.5,3106.25,-1076.25,66.88,-205.2,-492.48
348536.5276,70.211,104.615,1008.879,-297.5,2660.0,-498.75,62.32,-203.68,-513.76
348536.5776,74.908,104.31,1006.683,-43.75,2275.0,-210.0,59.28,-200.64,-506.16
348536.6276,77.653,101.077,1009.428,-787.5,2695.0,-105.0,62.32,-206.72,-489.44
348536.6776,79.605,103.517,1007.964,1303.75,3045.0,-1163.75,60.8,-200.64,-500.08
348536.7276,73.322,110.654,1010.465,656.25,3132.5,-1566.25,51.68,-202.16,-518.32
348536.7776,74.603,108.275,1006.866,-280.0,3158.75,-1146.25,80.56,-196.08,-498.56
348536.8276,70.699,100.406,1006.012,96.25,3290.0,-700.0,60.8,-202.16,-498.56
348536.8776,77.409,110.227,1009.672,52.5,2773.75,-1120.0,59.28,-199.12,-507.68
348536.9276,78.995,112.179,1005.463,787.5,3867.5,-1198.75,76.0,-196.08,-497.04
348536.9776,68.564,116.022,1006.866,8.75,3447.5,-1723.75,69.92,-203.68,-490.96
348537.0276,73.322,108.824,1005.219,-726.25,2406.25,-1618.75,60.8,-199.12,-509.2
348537.0776,75.396,106.018,1008.635,-227.5,3062.5,-157.5,72.96,-197.6,-519.84
348537.1276,70.394,111.447,1009.55,-420.0,2887.5,-420.0,71.44,-203.68,-500.08
348537.1776,75.274,107.848,1006.744,-813.75,3045.0,-1461.25,60.8,-208.24,-497.04
348537.2276,68.93,105.103,1009.489,-358.75,2931.25,-1216.25,65.36,-203.68,-495.52
348537.2776,70.699,102.968,1006.134,-227.5,2555.0,-446.25,71.44,-206.72,-501.6
348537.3276,74.908,103.456,1006.805,210.0,2537.5,-43.75,69.92,-203.68,-492.48
348537.3776,75.884,102.053,1006.988,-297.5,3106.25,-131.25,57.76,-205.2,-515.28
348537.4276,78.507,102.785,1008.086,437.5,3053.75,-1487.5,62.32,-202.16,-501.6
348537.4776,73.627,113.155,1010.038,175.0,3613.75,-1566.25,48.64,-203.68,-484.88
348537.5276,67.161,107.848,1004.06,271.25,2826.25,-455.0,53.2,-196.08,-492.48
348537.5776,76.433,106.75,1008.94,323.75,2826.25,402.5,60.8,-193.04,-509.2
348537.6276,71.675,109.983,1008.879,-87.5,2852.5,-210.0,91.2,-199.12,-500.08
348537.6776,75.335,109.556,1010.099,393.75,2493.75,-1058.75,85.12,-206.72,-483.36
348537.7276,67.649,116.571,1007.171,385.0,3368.75,-1487.5,68.4,-206.72,-494.0
348537.7776,73.749,114.436,1004.67,-507.5,2450.0,-1093.75,77.52,-197.6,-504.64
348537.8276,76.189,116.51,1004.06,-778.75,3141.25,43.75,69.92,-194.56,-495.52
348537.8776,73.505,108.519,1005.158,-1478.75,3648.75,113.75,68.4,-205.2,-501.6
348537.9276,68.686,102.602,1011.258,-1496.25,3132.5,-1198.75,79.04,-196.08,-504.64
348537.9776,72.529,99.918,1008.025,-551.25,3027.5,-1233.75,56.24,-202.16,-489.44
348538.0276,67.893,101.321,1005.28,-560.0,2520.0,-586.25,63.84,-197.6,-504.64
348538.0776,73.139,98.271,1007.842,-411.25,2292.5,-463.75,51.68,-199.12,-510.72
348538.1276,77.714,100.894,1009.489,-140.0,2826.25,26.25,63.84,-206.72,-487.92
348538.1776,71.919,100.528,1010.526,752.5,2817.5,-700.0,69.92,-212.8,-495.52
348538.2276,72.407,111.325,1006.805,70.0,3080.0,-1338.75,60.8,-196.08,-509.2
348538.2776,75.701,104.493,1004.548,-586.25,3053.75,-735.0,76.0,-186.96,-507.68
348538.3276,72.163,99.552,1007.781,-148.75,2931.25,-577.5,83.6,-202.16,-494.0
348538.3776,75.335,100.101,1006.805,717.5,2485.0,-805.0,42.56,-197.6,-504.64
348538.4276,75.945,110.532,1005.524,840.0,2555.0,-857.5,57.76,-197.6,-506.16
348538.4776,70.943,120.17,1007.72,-656.25,3438.75,-1225.0,72.96,-203.68,-492.48
348538.5276,72.285,112.362,1006.866,-1767.5,2703.75,-927.5,66.88,-202.16,-492.48
348538.5776,71.614,96.136,1011.38,-761.25,2861.25,-525.0,59.28,-205.2,-509.2
348538.6276,76.311,102.724,1010.526,-323.75,2266.25,-227.5,77.52,-200.64,-507.68
348538.6776,75.152,98.149,1008.574,-428.75,2800.0,-542.5,66.88,-194.56,-495.52
348538.7276,75.823,98.271,1007.293,-910.0,2695.0,-708.75,57.76,-202.16,-506.16
348538.7776,73.322,95.709,1009.123,-1006.25,2878.75,-927.5,66.88,-197.6,-513.76
348538.8276,74.542,95.465,1009.245,-411.25,2555.0,-980.0,71.44,-209.76,-501.6
348538.8776,80.337,91.439,1009.306,-35.0,2948.75,-455.0,82.08,-205.2,-483.36
348538.9276,74.725,94.001,1010.16,953.75,3053.75,-988.75,71.44,-196.08,-504.64
348538.9776,72.224,106.567,1006.683,420.0,2896.25,-1251.25,63.84,-193.04,-492.48
348539.0277,71.675,100.406,1005.463,245.0,2677.5,-805.0,66.88,-196.08,-487.92
348539.0776,76.616,99.735,1006.439,131.25,2686.25,-113.75,45.6,-197.6,-509.2
348539.1277,75.64,101.26,1012.112,87.5,2975.0,-253.75,60.8,-206.72,-501.6
348539.1776,80.154,101.931,1008.025,901.25,2301.25,-1076.25,74.48,-196.08,-497.04
348539.2276,75.518,108.092,1007.232,78.75,3255.0,-831.25,60.8,-200.64,-506.16
348539.2776,73.688,107.299,1007.72,-560.0,2703.75,-638.75,60.8,-190.0,-500.08
348539.3276,79.483,103.456,1006.317,-87.5,3150.0,-490.0,66.88,-199.12,-501.6
348539.3776,77.165,105.286,1007.415,-1006.25,3272.5,-1093.75,62.32,-202.16,-492.48
348539.4276,73.627,99.064,1007.354,-1111.25,3508.75,-1636.25,71.44,-199.12,-509.2
348539.4776,72.285,95.404,1009.672,-271.25,3053.75,-1023.75,68.4,-190.0,-507.68
348539.5276,72.224,100.223,1006.805,-315.0,2913.75,-507.5,69.92,-199.12,-489.44
348539.5776,72.59,98.332,1010.099,-288.75,2747.5,-253.75,59.28,-202.16,-509.2
348539.6276,76.494,95.831,1008.635,-481.25,2756.25,-638.75,65.36,-190.0,-506.16
348539.6776,78.995,93.879,1009.367,498.75,3036.25,-988.75,62.32,-199.12,-490.96
348539.7276,73.261,102.724,1007.232,-166.25,3491.25,-892.5,69.92,-197.6,-500.08
348539.7776,71.492,98.576,1005.036,-595.0,3123.75,-1120.0,66.88,-202.16,-489.44
348539.8276,75.762,96.441,1007.232,-577.5,3202.5,-437.5,65.36,-193.04,-509.2
348539.8776,80.886,93.635,1009.306,245.0,3377.5,96.25,63.84,-206.72,-489.44
348539.9276,77.226,99.918,1012.6,595.0,2817.5,-1067.5,74.48,-194.56,-498.56
348539.9776,69.479,105.042,1009.306,78.75,3342.5,-875.0,60.8,-209.76,-504.64
348540.0276,68.015,102.114,1010.831,-498.75,2738.75,-822.5,77.52,-202.16,-494.0
348540.0776,80.093,98.393,1008.818,-105.0,2485.0,-848.75,77.52,-205.2,-495.52
348540.1276,80.52,102.785,1006.622,227.5,3263.75,-210.0,71.44,-193.04,-506.16
348540.1776,72.956,100.467,1008.33,-752.5,3193.75,-1207.5,72.96,-199.12,-503.12
348540.2276,72.712,98.942,1007.781,-533.75,3237.5,-1566.25,72.96,-203.68,-495.52
348540.2776,71.187,97.539,1008.208,-770.0,3071.25,-1128.75,63.84,-202.16,-490.96
348540.3276,70.577,90.585,1008.147,-385.0,2861.25,-297.5,60.8,-199.12,-500.08
348540.3776,74.115,93.696,1009.855,-166.25,2800.0,-140.0,66.88,-193.04,-489.44
348540.4276,77.592,90.219,1009.672,805.0,3097.5,-621.25,60.8,-200.64,-492.48
348540.4776,72.041,104.005,1008.879,481.25,3465.0,-1373.75,63.84,-197.6,-498.56
348540.5276,69.174,98.759,1006.561,-227.5,3036.25,-1093.75,63.84,-197.6,-501.6
348540.5776,71.431,95.77,1006.439,-306.25,3176.25,-472.5,66.88,-205.2,-503.12
348540.6276,71.065,94.855,1008.33,-70.0,2940.0,-280.0,65.36,-199.12,-507.68
348540.6776,72.224,94.672,1008.94,551.25,2747.5,-577.5,72.96,-199.12,-501.6
348540.7276,68.747,98.698,1010.709,568.75,3613.75,-586.25,79.04,-203.68,-478.8
348540.7776,63.196,98.088,1007.049,551.25,2852.5,-498.75,68.4,-193.04,-498.56
348540.8276,76.25,100.955,1007.476,455.0,2493.75,0.0,65.36,-202.16,-507.68
348540.8776,75.152,102.358,1005.951,577.5,2843.75,393.75,79.04,-208.24,-490.96
348540.9276,75.396,98.027,1008.696,-367.5,3115.0,-1006.25,82.08,-197.6,-495.52
348540.9776,74.359,97.722,1011.746,113.75,3115.0,-1925.0,66.88,-202.16,-509.2
348541.0276,67.466,101.992,1006.622,-131.25,2852.5,-2152.5,66.88,-200.64,-503.12
348541.0776,70.028,101.138,1009.794,-673.75,2913.75,-1128.75,76.0,-197.6,-490.96
348541.1276,73.139,96.807,1010.892,-656.25,2817.5,-577.5,60.8,-196.08,-503.12
348541.1776,72.895,94.672,1009.672,376.25,3001.25,-735.0,56.24,-203.68,-506.16
348541.2276,74.359,99.308,1008.452,630.0,3377.5,-892.5,76.0,-205.2,-501.6
348541.2776,68.076,101.016,1004.975,-236.25,3088.75,-892.5,83.6,-196.08,-494.0
348541.3276,75.335,97.051,1007.415,-840.0,3272.5,-332.5,65.36,-194.56,-507.68
348541.3776,73.139,92.171,1011.746,-218.75,3132.5,-262.5,62.32,-191.52,-522.88
348541.4276,69.479,94.123,1012.966,297.5,2625.0,-1120.0,72.96,-193.04,-498.56
348541.4776,74.359,101.321,1008.635,376.25,3517.5,-1382.5,60.8,-196.08,-501.6
348541.5276,64.66,102.724,1010.16,35.0,2616.25,-840.0,65.36,-197.6,-500.08
348541.5776,75.884,98.576,1008.513,-262.5,3036.25,-271.25,77.52,-202.16,-500.08
348541.6276,76.006,97.844,1007.659,-262.5,3325.0,-61.25,76.0,-205.2,-484.88
348541.6776,72.224,98.759,1010.953,-437.5,3491.25,-1146.25,68.4,-202.16,-510.72
348541.7276,72.956,94.428,1010.526,-358.75,3281.25,-1671.25,63.84,-194.56,-506.16
348541.7776,68.564,96.441,1009.489,-61.25,3106.25,-892.5,66.88,-191.52,-498.56
348541.8276,68.869,95.526,1007.171,-140.0,2712.5,-498.75,59.28,-218.88,-490.96
348541.8776,70.028,93.208,1008.208,61.25,2633.75,-490.0,66.88,-186.96,-504.64
348541.9276,74.908,98.881,1010.953,253.75,2808.75,-743.75,76.0,-194.56,-494.0
348541.9776,71.98,99.308,1011.075,-253.75,3080.0,-647.5,66.88,-188.48,-501.6
348542.0276,70.272,91.134,1010.465,-61.25,2721.25,-700.0,66.88,-199.12,-487.92
348542.0776,70.821,96.868,1007.171,910.0,2695.0,-603.75,80.56,-186.96,-495.52
348542.1276,69.906,102.419,1010.892,507.5,2887.5,-297.5,69.92,-197.6,-494.0
348542.1776,75.152,108.153,1009.184,787.5,2843.75,-332.5,65.36,-211.28,-494.0
348542.2276,63.623,106.018,1012.844,70.0,2992.5,-253.75,65.36,-191.52,-518.32
348542.2776,74.664,98.515,1008.635,-962.5,2292.5,-288.75,60.8,-200.64,-490.96
348542.3276,77.653,96.99,1009.855,-245.0,3342.5,43.75,69.92,-205.2,-495.52
348542.3779,73.017,97.966,1007.903,-105.0,3298.75,-525.0,69.92,-197.6,-500.08
348542.4276,67.222,101.443,1010.16,-183.75,2686.25,-1540.0,72.96,-197.6,-506.16
348542.4777,67.893,97.295,1008.33,-568.75,2485.0,-1120.0,69.92,-196.08,-495.52
348542.5276,72.712,96.441,1007.171,-848.75,2257.5,-96.25,66.88,-202.16,-506.16
348542.5777,74.603,90.524,1010.099,-35.0,2598.75,-306.25,76.0,-199.12,-513.76
348542.6276,79.91,91.683,1010.038,778.75,2817.5,-717.5,92.72,-197.6,-487.92
348542.6776,69.296,98.088,1011.38,-533.75,2826.25,-945.0,60.8,-196.08,-509.2
348542.7276,74.847,94.184,1009.062,-656.25,2835.0,-796.25,69.92,-196.08,-498.56
348542.7776,72.712,88.023,1009.977,-262.5,3036.25,-262.5,74.48,-199.12,-497.04
348542.8276,72.102,91.439,1010.587,271.25,2931.25,-682.5,89.68,-205.2,-490.96
348542.8776,78.08,98.942,1006.805,953.75,3071.25,-1268.75,62.32,-199.12,-495.52
348542.9276,64.416,103.822,1008.452,-612.5,2660.0,-1286.25,77.52,-196.08,-513.76
348542.9776,73.444,97.234,1007.232,-980.0,2327.5,-1058.75,71.44,-191.52,-484.88
348543.0276,76.921,94.489,1009.733,-26.25,2896.25,-210.0,71.44,-199.12,-497.04
348543.0776,76.311,97.966,1009.001,-227.5,3132.5,-358.75,69.92,-196.08,-500.08
348543.1276,73.993,92.232,1008.879,-358.75,3290.0,-2073.75,69.92,-200.64,-500.08
348543.1776,68.93,92.781,1008.818,96.25,2686.25,-2616.25,48.64,-183.92,-507.68
348543.2276,70.516,94.123,1007.11,-78.75,2861.25,-1216.25,65.36,-186.96,-504.64
348543.2776,74.725,96.38,1008.086,367.5,3080.0,892.5,77.52,-188.48,-487.92
348543.3276,74.481,92.781,1011.502,533.75,3027.5,402.5,71.44,-203.68,-497.04
348543.3776,75.518,93.757,1007.72,-271.25,2485.0,-551.25,47.12,-196.08,-504.64
348543.4276,74.176,93.452,1008.208,-306.25,2712.5,-743.75,72.96,-196.08,-500.08
348543.4776,74.359,90.646,1010.892,17.5,2572.5,-857.5,63.84,-190.0,-497.04
348543.5276,74.725,93.086,1009.733,1426.25,2371.25,-796.25,53.2,-202.16,-507.68
348543.5776,80.459,100.528,1008.33,1242.5,3368.75,-542.5,68.4,-191.52,-504.64
348543.6276,68.076,104.798,1008.025,87.5,3010.0,-656.25,72.96,-196.08,-495.52
348543.6776,75.213,99.491,1009.245,-516.25,2537.5,-647.5,51.68,-205.2,-484.88
348543.7276,81.13,96.929,1009.611,-385.0,2843.75,43.75,60.8,-190.0,-507.68
348543.7776,73.993,93.147,1008.147,-595.0,3263.75,-936.25,89.68,-197.6,-490.96
348543.8276,74.054,94.672,1006.134,-262.5,2887.5,-1767.5,66.88,-199.12,-495.52
348543.8776,71.614,92.598,1008.757,2835.0,2021.25,-813.75,65.36,-190.0,-497.04
348543.9276,72.59,97.661,1011.685,26.25,2773.75,-481.25,83.6,-197.6,-510.72
348543.9776,83.265,102.236,1007.781,-1146.25,2817.5,-962.5,79.04,-205.2,-483.36
348544.0276,74.847,101.687,1006.5,-1540.0,3666.25,-1207.5,83.6,-202.16,-492.48
348544.0776,66.673,93.452,1007.781,-2353.75,3902.5,-1330.0,57.76,-199.12,-507.68
348544.1276,65.392,81.557,1013.515,341.25,2336.25,-2100.0,66.88,-193.04,-503.12
348544.1776,73.017,87.596,1008.452,962.5,1951.25,-1251.25,76.0,-193.04,-481.84
348544.2276,77.043,96.075,1006.866,227.5,2773.75,-236.25,68.4,-205.2,-501.6
348544.2776,75.396,99.491,1008.879,78.75,3097.5,-43.75,65.36,-209.76,-484.88
348544.3276,71.858,97.234,1008.574,105.0,2546.25,-393.75,74.48,-186.96,-506.16
348544.3776,79.361,93.33,1007.293,297.5,2450.0,-210.0,68.4,-194.56,-501.6
348544.4276,82.96,102.358,1008.208,175.0,3150.0,-183.75,57.76,-188.48,-500.08
348544.4776,75.152,92.781,1007.415,-1163.75,2686.25,-1575.0,66.88,-193.04,-512.24
348544.5276,74.847,92.598,1007.415,-665.0,2642.5,-1531.25,65.36,-191.52,-492.48
348544.5776,78.568,92.11,1010.77,-1391.25,2913.75,-341.25,79.04,-206.72,-500.08
348544.6276,78.995,92.659,1011.014,971.25,3263.75,-350.0,71.44,-190.0,-516.8
348544.6776,75.701,100.467,1008.208,-446.25,3570.0,-638.75,57.76,-191.52,-509.2
348544.7276,73.139,88.45,1008.208,-778.75,3176.25,-1400.0,69.92,-196.08,-494.0
348544.7776,76.555,83.326,1009.916,52.5,3281.25,-936.25,62.32,-193.04,-501.6
348544.8276,71.309,89.243,1008.452,26.25,3666.25,-131.25,74.48,-188.48,-504.64
348544.8777,75.518,89.853,1008.818,1286.25,2555.0,-1155.0,74.48,-191.52,-497.04
348544.9276,68.259,97.173,1013.576,822.5,3325.0,-1102.5,59.28,-203.68,-498.56
348544.9776,65.453,93.513,1009.855,-201.25,2380.0,-691.25,59.28,-197.6,-494.0
348545.0276,76.86,93.757,1007.781,805.0,2528.75,262.5,69.92,-197.6,-486.4
348545.0776,77.897,96.624,1009.977,-17.5,3036.25,481.25,68.4,-197.6,-509.2
348545.1276,72.712,90.341,1009.977,-638.75,2878.75,-752.5,65.36,-194.56,-497.04
348545.1776,72.834,90.585,1011.685,-953.75,3080.0,-988.75,79.04,-199.12,-498.56
348545.2276,77.714,87.962,1008.025,743.75,2511.25,-131.25,72.96,-191.52,-494.0
348545.2776,76.311,94.123,1009.794,376.25,3290.0,-280.0,57.76,-200.64,-483.36
348545.3276,69.784,93.452,1007.781,-376.25,2703.75,-665.0,68.4,-194.56,-513.76
348545.3776,76.921,89.121,1007.476,-148.75,2817.5,-778.75,68.4,-205.2,-497.04
348545.4276,73.322,85.461,1012.112,358.75,2660.0,-245.0,83.6,-200.64,-495.52
348545.4776,74.237,89.182,1009.794,840.0,2861.25,-805.0,60.8,-193.04,-498.56
348545.5276,79.361,96.624,1010.587,568.75,3228.75,-1198.75,71.44,-191.52,-486.4
348545.5776,72.041,99.735,1004.548,-577.5,3132.5,-883.75,82.08,-200.64,-503.12
348545.6276,77.287,86.254,1007.354,-437.5,2756.25,-778.75,66.88,-186.96,-495.52
348545.6776,76.921,89.609,1008.757,315.0,3150.0,-490.0,59.28,-191.52,-515.28
348545.7276,72.773,92.598,1008.635,-306.25,3325.0,-717.5,76.0,-203.68,-495.52
348545.7776,74.969,91.012,1006.744,-306.25,2721.25,-988.75,57.76,-193.04,-484.88
348545.8276,78.202,86.193,1007.842,-280.0,2555.0,-586.25,65.36,-196.08,-501.6
348545.8776,75.64,90.097,1009.428,533.75,3185.0,-227.5,82.08,-193.04,-497.04
348545.9278,72.529,91.012,1013.088,-262.5,2843.75,-411.25,68.4,-200.64,-504.64
348545.9776,78.873,88.633,1008.452,-463.75,2476.25,-647.5,68.4,-197.6,-504.64
348546.0277,76.921,86.559,1008.086,218.75,2992.5,-253.75,83.6,-190.0,-500.08
348546.0776,70.699,98.881,1001.559,376.25,2852.5,-988.75,83.6,-196.08,-480.32
348546.1276,71.614,104.615,1009.916,-1758.75,2861.25,-2257.5,69.92,-188.48,-492.48
348546.1776,73.139,88.877,1011.685,-1522.5,2765.0,-1172.5,57.76,-191.52,-503.12
348546.2276,74.603,82.777,1014.064,-1242.5,2975.0,-113.75,66.88,-190.0,-509.2
348546.2776,78.324,79.788,1009.367,-551.25,2511.25,-35.0,69.92,-188.48,-490.96
348546.3276,77.47,83.265,1009.245,17.5,3430.0,-1198.75,59.28,-197.6,-503.12
348546.3776,74.603,84.485,1010.038,-140.0,2905.0,-1347.5,68.4,-194.56,-512.24
348546.4276,80.642,84.79,1007.293,-148.75,3150.0,-341.25,77.52,-196.08,-486.4
348546.4776,74.176,88.328,1007.537,-358.75,3088.75,-647.5,65.36,-199.12,-498.56
348546.5276,73.932,83.082,1009.794,-1312.5,3342.5,-665.0,66.88,-193.04,-500.08
348546.5776,77.287,76.372,1010.465,-980.0,3027.5,-376.25,77.52,-197.6,-487.92
348546.6276,73.261,76.494,1015.284,665.0,3272.5,-595.0,72.96,-203.68,-495.52
348546.6776,66.124,86.071,1013.942,1207.5,2318.75,-411.25,76.0,-193.04,-507.68
348546.7276,74.115,93.757,1009.062,717.5,3377.5,-297.5,63.84,-199.12,-503.12
348546.7776,67.832,97.112,1008.452,70.0,2826.25,-428.75,86.64,-188.48,-501.6
348546.8276,78.202,88.511,1009.672,-1041.25,3045.0,-743.75,60.8,-197.6,-507.68
348546.8776,76.25,81.557,1008.94,-647.5,2975.0,-393.75,65.36,-194.56,-507.68
348546.9276,71.37,81.984,1014.064,-682.5,3386.25,-166.25,69.92,-194.56,-501.6
348546.9776,73.2,80.703,1004.67,498.75,2651.25,-796.25,74.48,-203.68,-487.92
348547.0276,78.446,84.241,1006.317,-551.25,2975.0,-157.5,47.12,-186.96,-498.56
348547.0776,71.126,85.644,1010.587,113.75,3176.25,-61.25,60.8,-183.92,-504.64
348547.1276,70.211,83.692,1010.77,-743.75,2415.0,-236.25,85.12,-188.48,-492.48
348547.1776,76.433,70.455,1008.818,-393.75,2668.75,-140.0,56.24,-191.52,-490.96
348547.2276,77.531,78.568,1012.234,1417.5,2808.75,-595.0,66.88,-202.16,-506.16
348547.2776,77.531,88.877,1008.33,1321.25,2887.5,-402.5,62.32,-196.08,-484.88
348547.3276,72.407,93.513,1012.661,656.25,3797.5,-796.25,82.08,-194.56,-494.0
348547.3776,67.527,95.648,1007.049,-192.5,2791.25,-953.75,68.4,-193.04,-509.2
348547.4276,75.213,83.387,1006.439,-700.0,2983.75,-568.75,83.6,-197.6,-504.64
348547.4776,73.444,83.631,1010.16,-236.25,2712.5,0.0,69.92,-205.2,-487.92
348547.5276,76.006,83.143,1009.184,-857.5,2948.75,-131.25,65.36,-193.04,-487.92
348547.5776,73.871,75.579,1009.855,157.5,2476.25,-988.75,74.48,-203.68,-503.12
348547.6276,77.714,80.276,1007.659,-350.0,2485.0,-358.75,74.48,-196.08,-497.04
348547.6776,73.627,84.058,1009.062,603.75,3237.5,-525.0,57.76,-186.96,-500.08
348547.7276,74.847,84.363,1009.611,-866.25,2730.0,-420.0,77.52,-197.6,-522.88
348547.7776,74.725,77.47,1011.075,-927.5,2738.75,-420.0,68.4,-194.56,-484.88
348547.8276,75.518,71.431,1012.234,297.5,2590.0,-332.5,77.52,-173.28,-494.0
348547.8776,75.274,81.923,1015.345,726.25,2747.5,-481.25,59.28,-197.6,-490.96
348547.9276,77.226,89.182,1011.563,726.25,3360.0,-1286.25,69.92,-193.04,-507.68
348547.9776,70.333,91.134,1010.343,-341.25,2030.0,-1216.25,56.24,-200.64,-486.4
348548.0276,78.568,87.596,1009.489,-691.25,2563.75,-332.5,68.4,-202.16,-504.64
348548.0776,77.165,84.485,1011.624,-402.5,2966.25,105.0,63.84,-185.44,-512.24
348548.1276,77.47,84.546,1007.903,-743.75,2913.75,-752.5,86.64,-199.12,-486.4
348548.1776,72.346,77.592,1009.733,-1058.75,3263.75,-1260.0,68.4,-199.12,-489.44
348548.2276,69.479,76.982,1012.783,-761.25,2765.0,-1067.5,53.2,-193.04,-501.6
348548.2776,80.947,77.836,1009.794,-43.75,3045.0,-323.75,66.88,-194.56,-498.56
348548.3276,74.298,85.278,1010.892,-350.0,3246.25,-805.0,68.4,-190.0,-495.52
348548.3776,73.566,79.056,1011.929,-691.25,2528.75,-1076.25,68.4,-199.12,-513.76
348548.4276,86.01,80.52,1006.744,140.0,2975.0,-166.25,62.32,-190.0,-509.2
348548.4776,85.644,80.764,1012.783,-560.0,4532.5,-446.25,66.88,-180.88,-484.88
348548.5276,71.492,80.947,1010.587,253.75,3456.25,-1767.5,53.2,-182.4,-497.04
348548.5776,68.076,82.411,1012.539,-586.25,4182.5,-428.75,71.44,-190.0,-518.32
348548.6276,62.647,78.019,1011.563,-743.75,3167.5,-402.5,62.32,-185.44,-506.16
348548.6776,69.662,75.457,1009.855,323.75,2546.25,-1181.25,71.44,-190.0,-500.08
348548.7276,72.285,79.3,1009.184,96.25,2607.5,-743.75,71.44,-190.0,-494.0
348548.7776,77.47,81.374,1010.648,-297.5,2476.25,-472.5,77.52,-197.6,-500.08
348548.8276,74.176,74.786,1010.648,-455.0,2817.5,-1111.25,74.48,-190.0,-490.96
348548.8776,74.115,75.884,1009.794,-245.0,2590.0,-1286.25,69.92,-180.88,-501.6
348548.9276,76.555,71.675,1011.746,647.5,3745.0,-778.75,63.84,-190.0,-507.68
348548.9776,73.261,84.485,1010.343,516.25,3823.75,-927.5,56.24,-182.4,-477.28
348549.0276,65.758,75.518,1010.831,105.0,2870.0,-1015.0,60.8,-185.44,-495.52
348549.0776,69.967,70.333,1011.929,612.5,2843.75,-262.5,72.96,-203.68,-501.6
348549.1276,71.065,75.335,1009.367,1505.0,2590.0,35.0,80.56,-190.0,-498.56
348549.1776,76.433,81.923,1009.062,2196.25,2047.5,-971.25,65.36,-188.48,-497.04
348549.2276,74.664,91.683,1009.855,1242.5,2887.5,-1172.5,53.2,-186.96,-497.04
348549.2776,72.651,84.973,1010.892,-26.25,2765.0,-656.25,63.84,-194.56,-501.6
348549.3276,75.213,85.583,1006.012,271.25,2406.25,-358.75,62.32,-197.6,-498.56
348549.3778,80.947,86.315,1007.659,-288.75,2756.25,78.75,65.36,-191.52,-498.56
348549.4276,75.884,79.849,1011.075,-586.25,3132.5,-796.25,80.56,-188.48,-487.92
348549.4779,68.869,81.496,1010.038,-376.25,2633.75,-1268.75,69.92,-190.0,-484.88
348549.5276,76.677,81.374,1009.672,-315.0,2423.75,-288.75,59.28,-193.04,-494.0
348549.5777,75.884,75.823,1012.112,201.25,2336.25,350.0,69.92,-193.04,-489.44
348549.6276,82.35,78.69,1013.759,1636.25,2808.75,-516.25,71.44,-185.44,-503.12
348549.6776,76.799,84.729,1008.208,70.0,2940.0,-892.5,63.84,-197.6,-500.08
348549.7276,74.786,78.934,1010.404,-315.0,2563.75,-1242.5,74.48,-193.04,-509.2
348549.7776,78.446,75.457,1009.977,551.25,2695.0,-385.0,77.52,-191.52,-509.2
348549.8276,71.797,80.642,1012.173,953.75,2782.5,-288.75,79.04,-200.64,-487.92
348549.8776,77.958,88.572,1009.245,446.25,3360.0,-1076.25,65.36,-193.04,-495.52
348549.9276,68.137,89.121,1011.197,-148.75,2703.75,-1137.5,53.2,-190.0,-503.12
348549.9776,76.921,84.302,1007.659,-577.5,2695.0,-630.0,65.36,-190.0,-481.84
348550.0276,77.287,83.326,1008.818,17.5,2808.75,262.5,59.28,-191.52,-487.92
348550.0776,77.775,83.57,1010.526,-140.0,2922.5,-78.75,66.88,-191.52,-498.56
348550.1276,77.104,80.886,1009.977,-428.75,2940.0,-1058.75,59.28,-202.16,-498.56
348550.1776,77.531,81.679,1007.659,-437.5,2922.5,-840.0,83.6,-197.6,-498.56
348550.2276,73.993,81.435,1007.842,0.0,2397.5,-516.25,53.2,-186.96,-501.6
348550.2776,83.753,75.457,1009.855,-122.5,2808.75,218.75,59.28,-188.48,-489.44
348550.3276,81.618,78.69,1009.977,1216.25,3272.5,-761.25,80.56,-191.52,-497.04
348550.3776,73.444,82.594,1011.502,-131.25,3088.75,-1688.75,82.08,-197.6,-481.84
348550.4276,72.041,78.263,1009.672,-446.25,2703.75,-1172.5,62.32,-186.96,-509.2
348550.4776,75.701,75.64,1009.733,-131.25,2633.75,-218.75,50.16,-193.04,-480.32
348550.5276,74.359,80.215,1009.123,910.0,2887.5,-743.75,59.28,-185.44,-492.48
348550.5776,75.213,83.326,1014.552,708.75,2738.75,-1373.75,59.28,-185.44,-509.2
348550.6276,78.141,88.023,1007.354,385.0,2992.5,-455.0,65.36,-199.12,-506.16
348550.6776,78.385,82.594,1008.879,280.0,2511.25,-393.75,76.0,-191.52,-492.48
348550.7276,84.241,84.851,1010.404,332.5,2730.0,-428.75,69.92,-188.48,-501.6
348550.7776,80.032,89.914,1008.635,-638.75,3228.75,-848.75,53.2,-190.0,-501.6
348550.8276,78.019,84.241,1011.746,-813.75,3071.25,-1198.75,66.88,-197.6,-497.04
348550.8776,73.505,78.08,1008.757,-700.0,3088.75,-586.25,74.48,-193.04,-494.0
348550.9276,89.365,92.903,1010.404,87.5,2380.0,-96.25,62.32,-191.52,-509.2
348550.9776,82.716,78.141,1010.221,560.0,2765.0,-105.0,68.4,-188.48,-475.76
348551.0276,78.507,88.389,1010.831,0.0,3640.0,-1006.25,77.52,-190.0,-483.36
348551.0776,75.64,80.703,1008.574,-831.25,2913.75,-1163.75,59.28,-190.0,-497.04
348551.1276,79.3,75.945,1010.282,-647.5,3045.0,-271.25,60.8,-193.04,-497.04
348551.1776,78.507,75.518,1012.661,-315.0,3290.0,0.0,63.84,-193.04,-492.48
348551.2276,79.91,73.932,1013.271,1295.0,2423.75,-980.0,65.36,-194.56,-498.56
348551.2776,74.664,87.596,1011.624,1023.75,3412.5,-1163.75,57.76,-194.56,-506.16
348551.3276,72.956,92.903,1006.256,-175.0,2887.5,-997.5,80.56,-191.52,-498.56
348551.3776,75.762,81.801,1007.171,-962.5,3053.75,-157.5,71.44,-188.48,-484.88
348551.4276,76.433,81.008,1009.123,-341.25,2983.75,-105.0,59.28,-202.16,-500.08
348551.4776,75.335,80.581,1012.356,-813.75,3053.75,-1120.0,47.12,-191.52,-494.0
348551.5276,73.688,77.897,1011.746,-533.75,2625.0,-717.5,74.48,-194.56,-507.68
348551.5776,76.494,77.836,1007.293,-70.0,2485.0,-323.75,59.28,-191.52,-501.6
348551.6276,86.01,75.762,1009.123,385.0,2170.0,218.75,63.84,-186.96,-515.28
348551.6776,88.389,78.446,1010.282,988.75,2537.5,-157.5,74.48,-179.36,-498.56
348551.7276,81.618,83.143,1008.269,-560.0,2546.25,-297.5,51.68,-196.08,-487.92
348551.7776,81.13,76.067,1008.269,-288.75,3097.5,-1111.25,68.4,-179.36,-495.52
348551.8276,80.276,73.627,1008.208,-113.75,3010.0,-1102.5,62.32,-194.56,-498.56
348551.8776,79.361,75.091,1010.648,280.0,3018.75,-770.0,77.52,-182.4,-494.0
348551.9276,81.191,82.655,1011.99,297.5,3946.25,-752.5,68.4,-193.04,-494.0
348551.9776,70.516,85.766,1010.709,-52.5,2861.25,-1093.75,57.76,-190.0,-524.4
348552.0276,80.093,81.923,1008.513,-61.25,2992.5,-630.0,71.44,-194.56,-501.6
348552.0776,76.372,81.862,1008.452,-131.25,3027.5,-52.5,57.76,-188.48,-486.4
348552.1276,75.884,82.411,1009.977,-498.75,2870.0,-656.25,60.8,-193.04,-497.04
348552.1776,75.518,80.703,1008.025,-1023.75,2598.75,-848.75,71.44,-188.48,-495.52
348552.2276,77.47,74.42,1008.33,-516.25,2511.25,-665.0,65.36,-186.96,-489.44
348552.2776,78.385,70.455,1011.258,-411.25,2511.25,-481.25,62.32,-191.52,-489.44
348552.3276,83.326,67.161,1010.892,892.5,2843.75,-673.75,62.32,-188.48,-490.96
348552.3776,77.165,80.581,1010.282,-26.25,2843.75,-717.5,69.92,-186.96,-500.08
348552.4276,76.982,76.799,1008.391,-560.0,2537.5,-638.75,62.32,-196.08,-486.4
348552.4776,78.385,74.176,1010.282,-210.0,3010.0,-586.25,59.28,-177.84,-507.68
348552.5276,79.91,72.468,1012.478,183.75,2730.0,-778.75,72.96,-190.0,-494.0
348552.5776,86.681,80.581,1009.855,997.5,3237.5,-1198.75,68.4,-190.0,-495.52
348552.6276,73.627,85.278,1009.611,0.0,2992.5,-1303.75,57.76,-191.52,-506.16
348552.6776,78.568,80.825,1010.465,-568.75,2590.0,-1023.75,62.32,-193.04,-504.64
348552.7276,78.629,80.276,1009.55,131.25,3080.0,26.25,72.96,-196.08,-483.36
348552.7776,78.995,80.337,1011.075,-402.5,3010.0,-236.25,59.28,-191.52,-495.52
348552.8276,79.666,74.298,1009.428,-621.25,2896.25,-1303.75,62.32,-191.52,-492.48
348552.8776,78.08,70.15,1012.6,43.75,3036.25,-1531.25,76.0,-183.92,-487.92
348552.9278,79.178,71.248,1007.049,-122.5,2835.0,-980.0,62.32,-185.44,-489.44
348552.9776,83.692,75.396,1010.16,560.0,3115.0,-551.25,65.36,-177.84,-500.08
348553.0277,79.178,80.581,1011.136,-236.25,3360.0,-691.25,76.0,-186.96,-504.64
348553.0776,74.969,77.958,1010.831,-682.5,2318.75,-1137.5,63.84,-186.96,-501.6
348553.1277,81.252,66.124,1011.99,-148.75,2721.25,-236.25,59.28,-196.08,-497.04
348553.1776,78.873,71.126,1010.343,402.5,2633.75,-446.25,63.84,-186.96,-498.56
348553.2276,86.986,79.239,1008.574,1242.5,2773.75,-1338.75,62.32,-185.44,-484.88
348553.2776,76.433,83.631,1010.343,761.25,3456.25,-1347.5,62.32,-191.52,-489.44
348553.3276,74.298,81.618,1009.489,-253.75,2581.25,-962.5,63.84,-190.0,-503.12
348553.3776,82.655,79.788,1007.659,140.0,2966.25,-96.25,82.08,-179.36,-484.88
348553.4276,82.96,79.666,1007.476,-507.5,3307.5,-87.5,69.92,-196.08,-492.48
348553.4776,76.494,80.398,1006.988,-428.75,3150.0,-1111.25,57.76,-194.56,-501.6
348553.5276,76.677,76.86,1011.014,-717.5,2948.75,-1050.0,65.36,-186.96,-490.96
348553.5776,78.507,71.37,1014.491,-717.5,2458.75,-96.25,69.92,-190.0,-506.16
348553.6276,84.424,71.858,1009.916,743.75,2817.5,-262.5,51.68,-196.08,-497.04
348553.6776,75.945,82.838,1010.404,26.25,3106.25,-630.0,66.88,-190.0,-495.52
348553.7276,78.629,76.982,1008.086,-647.5,2668.75,-953.75,63.84,-205.2,-487.92
348553.7776,78.446,70.333,1012.539,-673.75,2870.0,-551.25,48.64,-194.56,-484.88
348553.8276,80.825,71.797,1008.879,393.75,2703.75,-236.25,48.64,-182.4,-507.68
348553.8776,83.814,75.64,1011.502,367.5,2703.75,-542.5,60.8,-191.52,-487.92
348553.9276,76.494,80.215,1011.502,490.0,3526.25,-813.75,68.4,-186.96,-478.8
348553.9776,73.017,78.263,1010.953,-315.0,2301.25,-883.75,57.76,-191.52,-504.64
348554.0276,80.947,75.518,1011.38,17.5,2275.0,-437.5,68.4,-193.04,-490.96
348554.0776,83.082,79.361,1006.988,52.5,2896.25,183.75,76.0,-190.0,-498.56
348554.1276,78.812,77.348,1009.916,-533.75,2966.25,-708.75,68.4,-193.04,-492.48
348554.1776,80.215,70.15,1014.308,-533.75,3010.0,-1163.75,69.92,-186.96,-495.52
348554.2276,80.581,61.0,1014.796,87.5,2660.0,-586.25,51.68,-183.92,-501.6
348554.2776,85.705,59.841,1010.77,1295.0,2660.0,-638.75,66.88,-190.0,-483.36
348554.3276,86.01,82.777,1005.158,2695.0,3640.0,-1426.25,72.96,-186.96,-495.52
348554.3776,75.701,91.073,1008.391,341.25,3316.25,-1610.0,66.88,-186.96,-504.64
348554.4276,77.47,83.326,1009.123,-665.0,2791.25,-953.75,68.4,-183.92,-500.08
348554.4776,80.093,71.309,1012.112,-236.25,2721.25,70.0,63.84,-203.68,-500.08
348554.5276,78.019,72.651,1013.637,787.5,2520.0,-323.75,71.44,-186.96,-509.2
348554.5776,82.716,83.204,1010.892,936.25,2975.0,-752.5,66.88,-188.48,-495.52
348554.6276,73.139,83.753,1009.428,682.5,2878.75,-717.5,76.0,-196.08,-484.88
348554.6776,81.313,86.071,1008.513,376.25,2266.25,-717.5,63.84,-193.04,-494.0
348554.7276,88.633,84.241,1008.269,-253.75,2721.25,297.5,69.92,-200.64,-506.16
348554.7776,86.193,84.424,1009.428,-1015.0,3535.0,-70.0,77.52,-185.44,-500.08
348554.8276,81.069,74.176,1009.489,-1198.75,3150.0,-1382.5,71.44,-193.04,-480.32
348554.8776,80.825,72.346,1010.526,-743.75,2852.5,-1128.75,62.32,-193.04,-507.68
348554.9276,82.167,70.455,1011.197,-323.75,2581.25,-297.5,68.4,-179.36,-490.96
348554.9776,87.291,75.945,1011.075,1032.5,3018.75,-490.0,66.88,-186.96,-501.6
348555.0276,81.191,87.352,1009.794,183.75,3465.0,-822.5,63.84,-191.52,-483.36
348555.0776,80.093,78.507,1008.513,-428.75,2371.25,-437.5,59.28,-182.4,-492.48
348555.1276,81.313,72.834,1010.038,175.0,2450.0,-78.75,82.08,-196.08,-495.52
348555.1776,85.522,77.043,1008.025,516.25,2922.5,-192.5,60.8,-185.44,-489.44
348555.2276,87.535,80.276,1010.221,490.0,2896.25,-612.5,44.08,-190.0,-489.44
348555.2776,74.115,85.339,1010.465,-122.5,3605.0,-1155.0,77.52,-196.08,-501.6
348555.3276,80.459,75.945,1010.953,-866.25,2353.75,-586.25,48.64,-194.56,-492.48
348555.3776,85.278,76.128,1010.709,175.0,3018.75,402.5,59.28,-185.44,-500.08
348555.4276,83.387,81.74,1011.136,-35.0,3018.75,271.25,72.96,-186.96,-501.6
348555.4776,81.923,79.422,1011.563,-78.75,2721.25,-953.75,71.44,-191.52,-503.12
348555.5276,81.618,77.958,1007.903,-105.0,2975.0,-1295.0,71.44,-191.52,-486.4
348555.5776,82.655,76.799,1011.929,-288.75,2756.25,-647.5,59.28,-183.92,-483.36
348555.6276,85.278,77.226,1008.94,-122.5,2721.25,-271.25,65.36,-185.44,-506.16
348555.6776,83.082,82.96,1008.879,-105.0,3237.5,-682.5,65.36,-194.56,-495.52
348555.7276,78.934,79.239,1011.746,-1251.25,2738.75,-813.75,57.76,-183.92,-494.0
348555.7776,81.862,68.015,1008.208,-988.75,2625.0,-367.5,69.92,-180.88,-497.04
348555.8276,83.631,69.235,1012.173,778.75,2310.0,-253.75,68.4,-193.04,-483.36
348555.8776,83.204,78.507,1011.807,210.0,2327.5,-402.5,79.04,-180.88,-492.48
348555.9276,87.108,79.483,1010.221,-481.25,3666.25,-910.0,65.36,-183.92,-500.08
348555.9776,77.531,76.799,1010.709,-516.25,2922.5,-1085.0,63.84,-197.6,-515.28
348556.0276,88.267,73.383,1010.892,-621.25,2625.0,-761.25,71.44,-190.0,-495.52
348556.0776,83.814,72.651,1007.903,-140.0,3412.5,-87.5,59.28,-185.44,-497.04
348556.1276,81.862,75.335,1009.55,-446.25,3360.0,-875.0,59.28,-179.36,-504.64
348556.1776,78.751,71.248,1009.794,-577.5,2878.75,-1330.0,56.24,-182.4,-504.64
348556.2276,80.337,74.481,1009.367,-1015.0,2738.75,-918.75,53.2,-196.08,-498.56
348556.2778,82.228,68.808,1009.062,-236.25,2275.0,-691.25,72.96,-196.08,-507.68
348556.3276,88.694,70.272,1012.356,577.5,2808.75,-700.0,60.8,-191.52,-507.68
348556.3777,85.827,80.703,1008.94,210.0,3552.5,-770.0,72.96,-188.48,-498.56
348556.4276,81.069,71.736,1008.696,-997.5,2738.75,-980.0,60.8,-179.36,-486.4
348556.4777,82.777,62.769,1009.245,-796.25,2537.5,-1137.5,45.6,-190.0,-507.68
348556.5276,88.206,68.381,1012.112,743.75,2537.5,-717.5,51.68,-186.96,-494.0
348556.5777,87.657,71.126,1009.855,997.5,3141.25,-910.0,57.76,-194.56,-494.0
348556.6276,80.642,81.374,1009.306,218.75,3613.75,-1566.25,51.68,-191.52,-495.52
348556.6776,81.679,75.274,1008.696,-717.5,2651.25,-953.75,83.6,-180.88,-492.48
348556.7276,83.265,70.516,1009.55,-358.75,2861.25,-218.75,63.84,-199.12,-501.6
348556.7776,88.694,73.688,1010.404,-437.5,3395.0,-218.75,63.84,-188.48,-509.2
348556.8276,84.607,71.98,1010.465,-481.25,3325.0,-1198.75,60.8,-191.52,-513.76
348556.8776,82.411,68.259,1009.306,-341.25,2966.25,-1330.0,71.44,-196.08,-497.04
348556.9276,77.409,71.553,1009.428,-647.5,2808.75,-621.25,68.4,-185.44,-498.56
348556.9776,82.045,66.795,1009.123,-656.25,2353.75,-350.0,53.2,-193.04,-495.52
348557.0276,88.816,63.074,1010.16,376.25,2887.5,-393.75,66.88,-188.48,-492.48
348557.0776,87.901,70.028,1008.086,1032.5,3228.75,-1093.75,60.8,-188.48,-484.88
348557.1276,80.825,69.418,1006.683,-358.75,3123.75,-1198.75,59.28,-177.84,-498.56
348557.1776,81.862,69.479,1009.916,-131.25,2870.0,-665.0,66.88,-180.88,-501.6
348557.2276,81.801,65.209,1011.38,175.0,3036.25,-350.0,63.84,-194.56,-484.88
348557.2776,82.777,70.882,1011.685,778.75,2677.5,-700.0,60.8,-185.44,-503.12
348557.3276,83.814,75.64,1011.075,901.25,3307.5,-1067.5,50.16,-179.36,-492.48
348557.3776,78.446,76.677,1009.977,183.75,2738.75,-682.5,72.96,-188.48,-492.48
348557.4276,88.206,73.688,1008.818,-288.75,2633.75,-463.75,63.84,-180.88,-489.44
348557.4777,84.729,75.518,1009.977,-376.25,2975.0,-210.0,62.32,-186.96,-497.04
348557.5276,84.973,68.869,1009.855,-647.5,3088.75,-595.0,59.28,-182.4,-504.64
348557.5776,83.204,67.466,1010.831,-201.25,3368.75,-953.75,62.32,-177.84,-497.04
348557.6276,81.557,67.344,1009.794,175.0,2590.0,-813.75,59.28,-183.92,-481.84
348557.6776,83.082,68.259,1009.55,218.75,2686.25,-148.75,66.88,-190.0,-495.52
348557.7276,84.79,69.479,1008.574,-262.5,2520.0,-192.5,66.88,-179.36,-497.04
348557.7776,88.572,66.856,1011.929,796.25,2957.5,-568.75,45.6,-185.44,-510.72
348557.8276,84.119,78.019,1010.404,787.5,3666.25,-708.75,56.24,-182.4,-497.04
348557.8776,77.592,75.03,1009.062,-455.0,2581.25,-1102.5,69.92,-190.0,-503.12
348557.9276,84.79,67.527,1011.319,-288.75,3053.75,-175.0,68.4,-186.96,-484.88
348557.9776,86.254,73.566,1011.258,280.0,2913.75,-96.25,50.16,-182.4,-504.64
348558.0276,87.962,73.139,1009.977,700.0,2633.75,-1041.25,76.0,-182.4,-503.12
348558.0776,83.936,78.263,1009.611,166.25,3578.75,-936.25,53.2,-188.48,-487.92
348558.1276,78.263,75.335,1006.5,-1093.75,2660.0,-1268.75,51.68,-194.56,-498.56
348558.1776,79.91,70.943,1009.123,-875.0,2423.75,-1137.5,59.28,-177.84,-510.72
348558.2276,87.23,66.917,1011.258,-866.25,3430.0,87.5,57.76,-186.96,-503.12
348558.2776,80.398,61.427,1011.197,-253.75,3036.25,-735.0,59.28,-191.52,-492.48
348558.3276,81.374,62.342,1011.441,262.5,2625.0,-980.0,65.36,-180.88,-504.64
348558.3776,84.302,67.893,1007.903,-43.75,2896.25,-402.5,62.32,-180.88,-495.52
348558.4276,84.241,68.381,1009.489,-183.75,2721.25,-472.5,69.92,-186.96,-492.48
348558.4776,82.899,60.573,1012.905,761.25,1828.75,-621.25,62.32,-183.92,-481.84
348558.5276,85.339,76.128,1005.951,1233.75,2563.75,-682.5,56.24,-191.52,-490.96
348558.5776,85.705,78.568,1011.685,-210.0,2948.75,-595.0,62.32,-188.48,-477.28
348558.6276,86.62,65.941,1012.783,-245.0,3053.75,-262.5,82.08,-193.04,-489.44
348558.6776,83.753,66.185,1009.916,-78.75,3421.25,-595.0,56.24,-183.92,-500.08
348558.7276,86.01,68.625,1008.025,831.25,3080.0,-1006.25,71.44,-186.96,-506.16
348558.7776,90.463,77.958,1004.67,1190.0,3158.75,-962.5,63.84,-177.84,-489.44
348558.8276,77.409,84.851,1012.783,-455.0,3920.0,-1058.75,53.2,-186.96,-478.8
348558.8776,78.141,68.198,1010.343,-1277.5,2310.0,-892.5,57.76,-200.64,-498.56
348558.9276,87.962,66.978,1008.879,-472.5,2467.5,-455.0,72.96,-190.0,-490.96
348558.9776,81.74,68.442,1008.391,218.75,2712.5,-927.5,56.24,-185.44,-500.08
348559.0276,82.228,72.956,1010.343,-1032.5,2572.5,-1426.25,65.36,-186.96,-495.52
348559.0776,81.252,64.172,1010.587,-962.5,2493.75,-1312.5,68.4,-190.0,-484.88
348559.1276,85.217,63.745,1011.319,-682.5,2213.75,-1041.25,68.4,-188.48,-490.96
348559.1776,87.535,63.501,1006.622,-516.25,2100.0,-752.5,57.76,-191.52,-498.56
348559.2276,91.805,69.174,1009.428,157.5,2756.25,-131.25,63.84,-174.8,-497.04
348559.2776,85.644,74.359,1008.879,-507.5,3106.25,148.75,65.36,-190.0,-497.04
348559.3276,86.925,67.405,1009.489,-1216.25,2563.75,140.0,60.8,-190.0,-495.52
348559.3776,91.012,53.436,1008.025,105.0,3071.25,-411.25,63.84,-179.36,-501.6
348559.4276,87.108,60.451,1009.794,717.5,3438.75,-472.5,66.88,-185.44,-486.4
348559.4776,85.827,67.466,1009.55,358.75,2607.5,-761.25,76.0,-191.52,-487.92
348559.5276,91.927,73.078,1010.892,-297.5,3885.0,-603.75,57.76,-186.96,-500.08
348559.5776,78.568,67.771,1008.818,-883.75,2590.0,-761.25,68.4,-185.44,-494.0
348559.6276,91.5,60.817,1011.441,26.25,2747.5,-463.75,72.96,-197.6,-490.96
348559.6776,88.694,63.928,1013.576,280.0,3491.25,78.75,65.36,-193.04,-494.0
348559.7277,81.435,68.564,1011.136,-26.25,3220.0,-1023.75,68.4,-194.56,-501.6
348559.7776,79.727,67.649,1010.953,-35.0,2633.75,-1295.0,74.48,-183.92,-500.08
348559.8277,82.167,68.442,1010.648,-735.0,2572.5,-166.25,66.88,-179.36,-489.44
348559.8776,78.08,62.281,1011.258,-1050.0,2100.0,-367.5,66.88,-183.92,-501.6
348559.9276,81.679,61.183,1008.757,-175.0,778.75,-437.5,57.76,-188.48,-487.92
348559.9776,100.162,63.562,1010.465,35.0,2345.0,245.0,65.36,-202.16,-484.88
348560.0276,87.474,60.329,1014.064,-586.25,2406.25,-323.75,65.36,-174.8,-500.08
348560.0776,101.26,51.85,1008.574,166.25,2047.5,-1216.25,48.64,-174.8,-509.2
348560.1276,90.829,58.926,1010.648,1233.75,3193.75,-735.0,60.8,-177.84,-503.12
348560.1776,86.559,66.307,1009.55,1566.25,2126.25,-1251.25,60.8,-199.12,-504.64
348560.2276,92.476,75.091,1008.635,367.5,3517.5,-936.25,53.2,-191.52,-500.08
348560.2776,84.363,73.505,1008.452,-577.5,3053.75,-656.25,60.8,-177.84,-498.56
348560.3276,90.829,61.732,1011.685,-595.0,2275.0,-840.0,57.76,-183.92,-478.8
348560.3776,95.709,64.233,1011.258,140.0,3141.25,218.75,63.84,-179.36,-489.44
348560.4276,94.367,67.893,1008.94,-201.25,3500.0,-227.5,57.76,-185.44,-492.48
348560.4776,89.914,67.832,1009.123,-560.0,2861.25,-1548.75,69.92,-186.96,-489.44
348560.5276,91.744,64.965,1010.709,-945.0,3176.25,-1242.5,72.96,-182.4,-481.84
348560.5776,88.999,60.878,1011.929,-953.75,2695.0,-376.25,48.64,-190.0,-495.52
348560.6276,92.964,57.34,1014.43,-245.0,3080.0,-428.75,71.44,-173.28,-498.56
348560.6776,93.391,60.024,1009.855,411.25,3438.75,-1058.75,59.28,-186.96,-483.36
348560.7276,85.461,60.207,1009.611,-288.75,3167.5,-1015.0,74.48,-180.88,-504.64
348560.7776,89.243,57.95,1007.72,-253.75,3071.25,-945.0,50.16,-179.36,-490.96
348560.8276,88.572,54.778,1008.94,507.5,2817.5,-621.25,50.16,-185.44,-489.44
348560.8776,89.304,59.841,1011.746,988.75,2756.25,-525.0,56.24,-182.4,-501.6
348560.9276,91.439,70.821,1009.367,245.0,3473.75,-831.25,56.24,-185.44,-501.6
348560.9776,85.156,69.235,1007.781,-105.0,2835.0,-1006.25,53.2,-171.76,-492.48
348561.0276,89.243,64.111,1008.391,-376.25,2651.25,-761.25,63.84,-186.96,-494.0
348561.0776,94.062,64.965,1010.465,87.5,2940.0,-166.25,42.56,-188.48,-494.0
348561.1276,91.622,64.294,1010.221,-227.5,3281.25,-288.75,57.76,-179.36,-501.6
348561.1776,84.546,62.952,1008.147,-463.75,3036.25,-1076.25,65.36,-188.48,-489.44
348561.2276,85.888,63.013,1009.245,-367.5,2502.5,-735.0,60.8,-179.36,-501.6
348561.2776,89.731,59.475,1011.319,-428.75,2143.75,183.75,72.96,-179.36,-498.56
348561.3276,96.746,55.205,1009.55,227.5,2992.5,52.5,66.88,-177.84,-484.88
348561.3776,94.916,65.209,1009.428,428.75,3683.75,-595.0,69.92,-177.84,-497.04
348561.4276,87.108,58.804,1008.025,-218.75,3115.0,-1365.0,62.32,-186.96,-510.72
348561.4776,90.097,55.144,1007.049,-131.25,3115.0,-945.0,59.28,-183.92,-500.08
348561.5276,89.548,57.767,1012.356,1041.25,2878.75,-525.0,56.24,-180.88,-494.0
348561.5776,90.28,65.697,1009.062,813.75,2852.5,-962.5,48.64,-190.0,-498.56
348561.6276,92.415,72.224,1010.343,315.0,3325.0,-927.5,76.0,-179.36,-501.6
348561.6776,80.764,65.636,1009.062,-271.25,3097.5,-1067.5,63.84,-188.48,-498.56
348561.7276,89.853,63.684,1009.855,-87.5,2607.5,-717.5,60.8,-174.8,-487.92
348561.7776,91.073,67.161,1010.465,-332.5,3316.25,227.5,63.84,-183.92,-503.12
348561.8276,85.278,60.817,1010.953,-525.0,3036.25,-673.75,77.52,-176.32,-484.88
348561.8776,90.158,59.414,1009.672,-227.5,2817.5,-1295.0,71.44,-193.04,-492.48
348561.9276,89.792,58.194,1010.709,-385.0,2896.25,-463.75,63.84,-179.36,-503.12
348561.9776,89.548,58.743,1012.844,-708.75,2502.5,-315.0,72.96,-170.24,-503.12
348562.0276,94.184,56.73,1010.953,0.0,2616.25,-446.25,63.84,-182.4,-486.4
348562.0776,90.951,61.976,1011.38,35.0,3710.0,-586.25,56.24,-186.96,-504.64
348562.1276,88.694,59.78,1009.672,-210.0,3211.25,-1050.0,51.68,-180.88,-510.72
348562.1776,89.792,57.157,1008.757,-157.5,3403.75,-988.75,57.76,-183.92,-483.36
348562.2276,89.548,54.229,1012.478,621.25,3115.0,-647.5,62.32,-180.88,-484.88
348562.2776,92.964,56.242,1012.356,1032.5,2992.5,-1111.25,60.8,-186.96,-506.16
348562.3276,86.681,69.418,1007.232,1093.75,3893.75,-1032.5,76.0,-179.36,-494.0
348562.3776,80.154,65.636,1011.38,131.25,3211.25,-1032.5,53.2,-176.32,-478.8
348562.4276,92.903,66.795,1010.831,385.0,3438.75,-673.75,56.24,-180.88,-513.76
348562.4776,91.622,68.808,1008.147,113.75,3701.25,-446.25,71.44,-177.84,-500.08
348562.5276,78.69,64.294,1011.929,411.25,3473.75,-1303.75,63.84,-193.04,-481.84
348562.5776,82.96,70.577,1008.818,-113.75,2870.0,-1050.0,56.24,-188.48,-495.52
348562.6276,84.668,68.076,1009.001,-525.0,2695.0,-227.5,77.52,-191.52,-490.96
348562.6776,86.681,59.475,1012.539,-638.75,2782.5,-96.25,66.88,-190.0,-498.56
348562.7276,86.01,64.111,1010.404,-140.0,2721.25,-525.0,60.8,-194.56,-509.2
348562.7776,84.912,65.27,1009.367,-1181.25,3062.5,-367.5,51.68,-173.28,-498.56
348562.8276,86.254,52.765,1010.77,-1093.75,2957.5,-551.25,66.88,-176.32,-492.48
348562.8776,84.912,49.959,1010.343,-253.75,3115.0,-630.0,68.4,-186.96,-490.96
348562.9276,82.899,58.438,1014.491,778.75,2721.25,-726.25,51.68,-174.8,-515.28
348562.9776,90.524,61.61,1009.611,1347.5,2922.5,-1085.0,65.36,-196.08,-500.08
348563.0276,79.056,67.222,1007.232,533.75,2782.5,-883.75,50.16,-180.88,-492.48
348563.0776,85.4,67.649,1009.55,-61.25,2660.0,-507.5,47.12,-174.8,-483.36
348563.1276,90.158,67.161,1011.441,140.0,2931.25,-43.75,60.8,-182.4,-498.56
348563.1776,90.036,68.015,1012.905,-761.25,3438.75,-463.75,65.36,-185.44,-495.52
348563.2276,82.228,62.891,1012.173,-708.75,3001.25,-901.25,51.68,-190.0,-490.96
