TimeStamp,ax,ay,az,gx,gy,gz,mx,my,mz
348375.1776,24.461,123.464,1008.269,-70.0,3561.25,271.25,95.76,-199.12,-515.28
348375.2276,9.882,123.708,1011.197,-105.0,3220.0,-1198.75,114.0,-211.28,-504.64
348375.2776,25.986,113.826,1011.502,-446.25,1688.75,-822.5,92.72,-212.8,-507.68
348375.3276,30.988,118.584,1010.343,2248.75,3185.0,892.5,86.64,-196.08,-510.72
348375.3776,17.446,138.348,1004.182,1855.0,857.5,-2126.25,86.64,-206.72,-498.56
348375.4276,30.683,139.568,1002.169,-376.25,3097.5,-533.75,82.08,-209.76,-510.72
348375.4776,5.734,124.318,1014.552,-332.5,2170.0,8.75,92.72,-217.36,-521.36
348375.5276,34.343,126.758,1010.892,1505.0,656.25,-673.75,86.64,-218.88,-519.84
348375.5776,38.613,131.211,1003.633,2301.25,2248.75,61.25,92.72,-209.76,-497.04
348375.6276,31.781,150.121,1001.742,1312.5,2091.25,-3097.5,79.04,-205.2,-512.24
348375.6776,28.548,139.324,1005.402,-656.25,3193.75,-1890.0,85.12,-209.76,-519.84
348375.7276,20.374,138.897,1007.171,-420.0,2292.5,-796.25,91.2,-200.64,-522.88
348375.7776,30.805,133.346,1008.391,437.5,2187.5,1023.75,88.16,-211.28,-503.12
348375.8276,32.147,136.884,1006.561,1400.0,2878.75,2310.0,79.04,-212.8,-512.24
348375.8776,27.572,136.396,1007.171,621.25,2493.75,1671.25,88.16,-218.88,-516.8
348375.9276,26.962,133.712,1006.195,-271.25,971.25,-516.25,82.08,-212.8,-497.04
348375.9776,44.347,138.287,1008.208,-1006.25,1338.75,-201.25,74.48,-211.28,-518.32
348376.0276,43.859,128.283,1008.94,52.5,2537.5,1452.5,76.0,-211.28,-512.24
348376.0776,29.89,120.414,1010.465,831.25,3150.0,175.0,89.68,-209.76,-497.04
348376.1276,36.905,130.784,1007.598,2791.25,1181.25,-332.5,88.16,-208.24,-507.68
348376.1776,47.946,145.241,1003.145,1680.0,2502.5,-148.75,66.88,-215.84,-512.24
348376.2276,44.042,145.607,1003.206,813.75,2861.25,-455.0,88.16,-212.8,-519.84
348376.2776,34.953,140.849,1005.28,350.0,2808.75,-988.75,83.6,-215.84,-495.52
348376.3276,30.5,138.409,1008.757,525.0,2012.5,-1155.0,91.2,-220.4,-510.72
348376.3776,45.079,144.997,1005.28,717.5,1785.0,568.75,86.64,-224.96,-503.12
348376.4276,48.312,154.513,1003.999,1907.5,2826.25,192.5,77.52,-218.88,-492.48
348376.4776,46.482,152.5,1006.195,1662.5,3263.75,-1155.0,80.56,-229.52,-504.64
348376.5276,41.48,150.548,1001.803,-70.0,3648.75,-61.25,83.6,-218.88,-507.68
348376.5776,31.903,148.779,1006.866,-665.0,3360.0,603.75,82.08,-211.28,-501.6
348376.6278,35.624,140.422,1004.487,-656.25,2458.75,866.25,97.28,-206.72,-501.6
348376.6776,45.628,136.823,1010.221,-105.0,2686.25,673.75,76.0,-220.4,-498.56
348376.7277,36.234,142.923,1006.134,192.5,3298.75,-595.0,82.08,-205.2,-518.32
348376.7776,37.393,141.764,1008.513,315.0,1487.5,-813.75,91.2,-206.72,-507.68
348376.8276,48.739,143.045,1006.683,122.5,2353.75,446.25,79.04,-209.76,-509.2
348376.8776,47.58,146.156,1006.378,-288.75,3421.25,647.5,68.4,-223.44,-509.2
348376.9276,39.894,146.156,1006.195,-892.5,3062.5,-918.75,82.08,-226.48,-484.88
348376.9776,42.334,142.984,1006.866,-376.25,2773.75,-918.75,83.6,-209.76,-497.04
348377.0276,40.626,137.494,1005.341,-717.5,2782.5,-341.25,88.16,-206.72,-519.84
348377.0776,45.018,134.749,1007.171,-183.75,2817.5,-26.25,79.04,-205.2,-504.64
348377.1276,43.005,140.849,1005.829,1653.75,2730.0,-656.25,83.6,-212.8,-497.04
348377.1776,43.92,148.474,1003.206,43.75,2800.0,-621.25,72.96,-212.8,-512.24
348377.2276,40.382,134.139,1004.426,-752.5,2581.25,-498.75,88.16,-218.88,-524.4
348377.2776,43.005,137.616,1007.049,-157.5,2135.0,-52.5,86.64,-215.84,-494.0
348377.3276,48.19,137.982,1009.184,393.75,1916.25,-78.75,83.6,-211.28,-498.56
348377.3776,51.789,141.032,1006.256,735.0,3876.25,-568.75,79.04,-214.32,-522.88
348377.4276,36.051,146.644,1006.317,770.0,2852.5,-1338.75,82.08,-208.24,-503.12
348377.4776,47.336,139.141,1005.219,875.0,2362.5,-1347.5,97.28,-212.8,-498.56
348377.5276,50.02,146.217,1002.718,1251.25,3780.0,-166.25,71.44,-212.8,-510.72
348377.5776,41.175,150.548,1005.341,848.75,3675.0,-997.5,82.08,-223.44,-506.16
348377.6276,41.602,149.45,1002.047,0.0,3123.75,-1505.0,74.48,-206.72,-504.64
348377.6776,40.748,144.753,1002.047,-192.5,3123.75,-1155.0,88.16,-206.72,-506.16
348377.7276,38.552,139.69,1005.646,-1093.75,2257.5,-1653.75,80.56,-214.32,-524.4
348377.7776,50.752,136.579,1007.354,490.0,2826.25,-1242.5,86.64,-221.92,-484.88
348377.8276,46.604,146.461,1004.67,1548.75,3876.25,-910.0,69.92,-206.72,-498.56
348377.8776,36.234,150.67,1003.877,-656.25,3587.5,-2397.5,71.44,-206.72,-492.48
348377.9276,39.894,144.265,1003.206,-927.5,3053.75,-3115.0,86.64,-209.76,-510.72
348377.9776,37.393,139.934,1006.378,-490.0,2633.75,-2441.25,83.6,-209.76,-498.56
348378.0276,41.114,138.226,1007.171,-358.75,2730.0,-1356.25,72.96,-218.88,-507.68
348378.0776,45.933,142.008,1008.208,70.0,3421.25,96.25,80.56,-217.36,-509.2
348378.1276,36.356,142.13,1007.598,-577.5,3307.5,498.75,82.08,-220.4,-490.96
348378.1776,39.345,138.348,1005.036,-612.5,3045.0,455.0,72.96,-217.36,-500.08
348378.2276,41.236,143.35,1006.561,840.0,2922.5,-516.25,91.2,-208.24,-512.24
348378.2776,46.848,146.949,1000.888,358.75,3141.25,-1723.75,91.2,-205.2,-501.6
348378.3276,38.064,145.363,1004.67,-516.25,3613.75,-3132.5,74.48,-215.84,-498.56
348378.3776,33.672,141.337,1007.293,87.5,2738.75,-2773.75,85.12,-218.88,-507.68
348378.4276,40.382,142.557,1004.609,-358.75,2476.25,-1916.25,83.6,-217.36,-506.16
348378.4776,42.822,136.274,1008.391,542.5,2878.75,-472.5,92.72,-218.88,-507.68
348378.5276,46.177,143.777,1005.646,420.0,3272.5,-227.5,85.12,-223.44,-503.12
348378.5776,46.421,140.971,1005.585,1102.5,3937.5,-1067.5,74.48,-217.36,-515.28
348378.6276,38.003,150.304,1001.803,-770.0,4611.25,-2135.0,91.2,-226.48,-504.64
348378.6776,36.539,150.67,1003.023,-1837.5,4383.75,-3115.0,76.0,-208.24,-500.08
348378.7276,29.707,127.307,1007.049,-1216.25,3351.25,-2712.5,80.56,-223.44,-513.76
348378.7776,33.611,136.091,1008.696,113.75,3281.25,-1426.25,88.16,-228.0,-512.24
348378.8276,36.051,140.91,1003.694,831.25,3220.0,-376.25,92.72,-224.96,-506.16
348378.8776,31.72,142.984,1006.012,-341.25,3333.75,-1338.75,86.64,-203.68,-513.76
348378.9276,32.33,145.851,1003.633,-560.0,3158.75,-1461.25,92.72,-211.28,-504.64
348378.9776,37.637,145.546,1001.681,-1435.0,3920.0,-1566.25,69.92,-212.8,-521.36
348379.0276,28.426,138.104,1006.866,-1251.25,4095.0,-1373.75,97.28,-215.84,-513.76
348379.0776,23.363,133.651,1008.025,-612.5,3727.5,-1067.5,88.16,-211.28,-509.2
348379.1276,28.06,134.322,1006.561,-612.5,3508.75,-1146.25,91.2,-212.8,-498.56
348379.1776,26.657,133.407,1007.537,-78.75,3377.5,-1207.5,76.0,-214.32,-504.64
348379.2276,26.047,138.287,1007.537,-227.5,3220.0,-1172.5,80.56,-224.96,-494.0
348379.2776,25.437,134.505,1004.548,-726.25,3115.0,-787.5,83.6,-212.8,-518.32
348379.3276,25.681,135.969,1007.537,-516.25,2677.5,-297.5,88.16,-209.76,-518.32
348379.3776,32.635,133.285,1008.696,131.25,2852.5,-35.0,86.64,-212.8,-518.32
348379.4276,30.744,141.398,1008.269,350.0,3657.5,-472.5,72.96,-208.24,-512.24
348379.4776,25.071,135.969,1006.134,-743.75,2581.25,-1706.25,83.6,-215.84,-516.8
348379.5276,28.548,130.54,1007.049,-148.75,2992.5,-813.75,76.0,-211.28,-527.44
348379.5776,26.23,137.372,1008.208,183.75,3193.75,1303.75,98.8,-221.92,-500.08
348379.6276,23.241,136.091,1009.428,376.25,2336.25,647.5,88.16,-212.8,-503.12
348379.6776,31.781,142.496,1008.696,-393.75,3211.25,-358.75,83.6,-202.16,-500.08
348379.7276,23.363,132.553,1009.306,-665.0,2913.75,-726.25,89.68,-215.84,-532.0
348379.7776,27.511,133.407,1007.781,-166.25,2213.75,-971.25,88.16,-223.44,-500.08
348379.8276,32.94,139.69,1006.561,-218.75,3071.25,192.5,79.04,-221.92,-513.76
348379.8776,26.779,132.919,1008.513,-350.0,3228.75,210.0,74.48,-202.16,-506.16
348379.9276,27.45,136.091,1005.463,-140.0,2826.25,-743.75,95.76,-206.72,-490.96
348379.9779,32.574,132.248,1008.33,-17.5,3202.5,-192.5,79.04,-206.72,-506.16
348380.0276,25.986,129.32,1005.707,148.75,3325.0,-612.5,82.08,-209.76,-519.84
348380.0777,26.291,126.941,1009.55,-78.75,2721.25,-1487.5,89.68,-215.84,-518.32
348380.1276,26.901,132.065,1009.245,761.25,2852.5,-1225.0,86.64,-206.72,-492.48
348380.1777,25.559,137.616,1008.147,997.5,3246.25,-621.25,69.92,-214.32,-484.88
348380.2276,24.461,147.681,1005.463,0.0,3097.5,-831.25,83.6,-217.36,-512.24
348380.2776,25.193,138.897,1004.731,-796.25,2677.5,-822.5,85.12,-212.8,-510.72
348380.3276,29.402,130.845,1009.977,-315.0,2765.0,-385.0,89.68,-218.88,-507.68
348380.3776,31.049,132.309,1007.293,236.25,2695.0,-183.75,82.08,-224.96,-504.64
348380.4276,32.147,135.664,1008.391,752.5,2546.25,-962.5,86.64,-211.28,-522.88
348380.4776,27.877,144.509,1005.768,-43.75,3657.5,-743.75,86.64,-215.84,-507.68
348380.5276,21.594,139.629,1006.073,-568.75,2686.25,-726.25,74.48,-220.4,-503.12
348380.5776,40.443,147.193,1004.853,-376.25,4331.25,2738.75,86.64,-212.8,-506.16
348380.6276,16.836,133.102,1010.282,-1023.75,4445.0,3631.25,89.68,-203.68,-513.76
348380.6776,21.228,127.49,1011.685,175.0,1505.0,-2616.25,83.6,-215.84,-518.32
348380.7276,33.306,132.675,1006.378,87.5,1443.75,-3141.25,92.72,-211.28,-503.12
348380.7776,26.84,128.344,1006.561,26.25,2843.75,-796.25,86.64,-208.24,-522.88
348380.8276,27.694,139.202,1005.951,-26.25,2415.0,105.0,89.68,-214.32,-512.24
348380.8776,35.38,135.176,1006.012,-385.0,2607.5,271.25,82.08,-217.36,-506.16
348380.9276,32.147,130.662,1003.267,630.0,3132.5,-17.5,79.04,-206.72,-513.76
348380.9776,32.269,131.272,1007.964,1155.0,2940.0,-630.0,82.08,-223.44,-519.84
348381.0276,28.06,135.725,1009.855,87.5,2905.0,-971.25,95.76,-223.44,-521.36
348381.0776,32.147,131.943,1003.816,192.5,2992.5,-743.75,79.04,-215.84,-500.08
348381.1276,28.67,132.98,1005.097,848.75,2730.0,-603.75,85.12,-214.32,-516.8
348381.1776,33.245,140.239,1005.829,542.5,2266.25,402.5,83.6,-212.8,-504.64
348381.2276,40.565,139.995,1006.195,778.75,3500.0,822.5,101.84,-221.92,-510.72
348381.2776,20.191,144.326,1007.598,288.75,2485.0,148.75,77.52,-214.32,-500.08
348381.3276,38.064,140.361,1004.121,43.75,1741.25,-1006.25,74.48,-223.44,-516.8
348381.3776,42.395,140.3,1003.938,-17.5,3115.0,-201.25,86.64,-218.88,-510.72
348381.4276,28.426,140.117,1007.11,-271.25,3430.0,-892.5,80.56,-214.32,-495.52
348381.4776,31.598,139.202,1005.89,-297.5,3158.75,-1321.25,74.48,-215.84,-519.84
348381.5276,29.768,140.483,1004.731,-927.5,3088.75,-140.0,94.24,-221.92,-489.44
348381.5776,26.352,134.261,1008.574,-875.0,2275.0,-271.25,89.68,-214.32,-507.68
348381.6276,35.319,129.381,1006.195,-778.75,2283.75,175.0,92.72,-202.16,-512.24
348381.6776,32.391,136.945,1008.757,525.0,2966.25,1610.0,89.68,-212.8,-518.32
348381.7276,26.291,137.677,1009.672,-428.75,2957.5,1487.5,74.48,-212.8,-515.28
348381.7776,29.097,127.795,1008.147,-630.0,1085.0,-1155.0,94.24,-223.44,-504.64
348381.8276,46.909,126.27,1009.428,551.25,2310.0,-1461.25,89.68,-217.36,-500.08
348381.8776,34.892,131.821,1006.317,1015.0,3123.75,-918.75,83.6,-208.24,-501.6
348381.9276,45.14,143.472,1001.742,1522.5,2835.0,-595.0,65.36,-211.28,-510.72
348381.9776,33.245,143.594,1007.842,656.25,3465.0,-770.0,91.2,-212.8,-504.64
348382.0276,38.125,138.165,1004.365,-61.25,2152.5,-1373.75,88.16,-220.4,-495.52
348382.0776,53.07,142.069,1002.291,-113.75,3561.25,-866.25,82.08,-214.32,-518.32
348382.1276,32.757,139.812,1009.123,-1356.25,5346.25,-490.0,89.68,-205.2,-509.2
348382.1776,23.79,130.418,1009.306,-472.5,3377.5,-2196.25,89.68,-206.72,-501.6
348382.2276,24.827,132.309,1006.012,0.0,2931.25,-1636.25,79.04,-206.72,-513.76
348382.2776,34.282,132.98,1007.354,-288.75,2773.75,-385.0,86.64,-205.2,-507.68
348382.3276,31.842,130.54,1007.842,-595.0,3010.0,-603.75,95.76,-211.28,-504.64
348382.3776,34.709,134.993,1007.598,980.0,3141.25,-1050.0,89.68,-205.2,-506.16
348382.4276,26.779,137.921,1005.89,-918.75,2686.25,-1155.0,94.24,-218.88,-519.84
348382.4776,32.818,133.102,1006.073,-1496.25,2371.25,-752.5,82.08,-218.88,-518.32
348382.5276,32.635,124.318,1011.868,-612.5,2598.75,-498.75,80.56,-209.76,-506.16
348382.5776,33.001,125.477,1008.818,61.25,2905.0,-971.25,85.12,-211.28,-504.64
348382.6276,37.271,129.32,1005.951,1566.25,2878.75,-1487.5,77.52,-202.16,-521.36
348382.6776,25.254,142.13,1006.866,376.25,3246.25,-1207.5,92.72,-212.8,-507.68
348382.7276,26.108,138.592,1005.28,-411.25,2502.5,-1102.5,85.12,-211.28,-515.28
348382.7776,35.868,135.969,1007.537,341.25,2450.0,-621.25,82.08,-214.32,-506.16
348382.8276,36.539,133.956,1007.293,393.75,3255.0,43.75,82.08,-212.8,-504.64
348382.8776,28.67,136.091,1007.72,1050.0,2808.75,-1750.0,80.56,-217.36,-500.08
348382.9276,32.696,139.385,1006.622,-726.25,2476.25,-1636.25,80.56,-220.4,-501.6
348382.9776,33.794,136.701,1006.256,-1015.0,2432.5,-1023.75,80.56,-209.76,-501.6
348383.0276,38.064,133.468,1006.683,-78.75,2371.25,-1015.0,72.96,-209.76,-509.2
348383.0776,37.759,131.943,1006.683,682.5,3325.0,-962.5,86.64,-220.4,-504.64
348383.1276,28.67,135.786,1006.5,-603.75,3018.75,-1128.75,86.64,-215.84,-504.64
348383.1776,33.733,128.161,1007.598,-490.0,2852.5,-866.25,85.12,-217.36,-521.36
348383.2276,36.234,129.259,1007.537,113.75,2992.5,-551.25,89.68,-211.28,-515.28
348383.2776,33.55,131.333,1005.646,1155.0,2450.0,-883.75,92.72,-208.24,-503.12
348383.3276,39.894,138.897,1005.89,1452.5,3027.5,-1111.25,71.44,-211.28,-506.16
348383.3776,29.219,141.886,1006.195,70.0,3438.75,-1093.75,80.56,-200.64,-512.24
348383.4278,31.11,135.847,1006.012,-568.75,2485.0,-1207.5,77.52,-217.36,-504.64
348383.4776,37.637,135.664,1006.195,-43.75,2957.5,-481.25,83.6,-205.2,-501.6
348383.5277,33.672,136.152,1006.378,-253.75,3176.25,-385.0,74.48,-217.36,-513.76
348383.5776,31.11,135.542,1007.11,-420.0,3071.25,-1015.0,92.72,-205.2,-507.68
348383.6276,31.293,132.187,1007.049,-787.5,3062.5,-875.0,91.2,-214.32,-500.08
348383.6776,31.232,128.649,1009.428,-595.0,3115.0,-831.25,89.68,-212.8,-507.68
348383.7276,36.478,129.015,1008.269,157.5,2966.25,-700.0,79.04,-211.28,-519.84
348383.7776,33.977,142.313,1007.293,183.75,3465.0,-980.0,94.24,-208.24,-501.6
348383.8276,31.415,135.054,1006.073,-927.5,3115.0,-1041.25,89.68,-214.32,-519.84
348383.8776,31.842,127.734,1009.306,-192.5,2940.0,-918.75,79.04,-206.72,-510.72
348383.9276,34.831,125.416,1007.781,315.0,2537.5,-411.25,95.76,-223.44,-513.76
348383.9776,33.916,130.418,1006.439,1583.75,2633.75,-883.75,91.2,-215.84,-503.12
348384.0276,35.319,144.631,1007.781,586.25,3281.25,-1636.25,83.6,-214.32,-510.72
348384.0776,29.524,142.496,1005.036,-490.0,3482.5,-1137.5,79.04,-208.24,-521.36
348384.1276,30.256,136.457,1008.513,446.25,2922.5,-393.75,100.32,-202.16,-509.2
348384.1776,34.465,137.738,1003.877,253.75,3123.75,-17.5,91.2,-205.2,-504.64
348384.2276,32.757,137.86,1007.293,-323.75,3010.0,-621.25,98.8,-215.84,-515.28
348384.2776,32.574,137.372,1006.134,-717.5,3202.5,-1758.75,88.16,-214.32,-506.16
348384.3276,27.877,133.102,1007.476,-1330.0,3255.0,-1680.0,100.32,-209.76,-506.16
348384.3776,31.659,126.148,1008.33,-437.5,2703.75,-691.25,91.2,-218.88,-495.52
348384.4276,38.979,124.867,1007.781,568.75,3211.25,35.0,65.36,-220.4,-509.2
348384.4776,30.134,137.372,1006.134,1260.0,3596.25,-1312.5,83.6,-209.76,-512.24
348384.5276,25.376,143.045,1002.596,-516.25,2843.75,-1802.5,94.24,-209.76,-487.92
348384.5776,26.352,144.265,1003.023,-1986.25,2800.0,-1373.75,88.16,-215.84,-503.12
348384.6276,33.489,118.95,1011.38,-1006.25,2598.75,927.5,79.04,-208.24,-513.76
348384.6776,32.879,126.392,1010.099,953.75,2712.5,1085.0,89.68,-206.72,-500.08
348384.7276,38.43,128.893,1010.465,280.0,2966.25,-997.5,88.16,-208.24,-503.12
348384.7776,25.803,132.492,1006.073,306.25,2896.25,-1750.0,80.56,-208.24,-510.72
348384.8276,23.79,133.651,1006.012,315.0,2485.0,-1198.75,92.72,-205.2,-507.68
348384.8776,34.648,140.056,1004.426,323.75,2852.5,332.5,92.72,-217.36,-503.12
348384.9276,33.55,138.348,1006.134,-586.25,2695.0,533.75,68.4,-205.2,-509.2
348384.9776,34.343,129.564,1006.195,-927.5,2992.5,-743.75,83.6,-209.76,-516.8
348385.0276,30.805,129.32,1007.293,-691.25,3167.5,-848.75,82.08,-206.72,-512.24
348385.0776,30.012,123.952,1010.282,113.75,3018.75,-411.25,94.24,-214.32,-483.36
348385.1276,33.916,131.638,1009.428,157.5,3053.75,-813.75,79.04,-203.68,-503.12
348385.1776,30.012,133.102,1009.733,883.75,2975.0,-1225.0,94.24,-212.8,-495.52
348385.2276,28.792,142.862,1007.598,-752.5,2458.75,-708.75,98.8,-209.76,-512.24
348385.2776,32.33,126.514,1005.097,-1540.0,2213.75,358.75,76.0,-214.32,-513.76
348385.3276,32.025,118.401,1010.892,-113.75,2143.75,245.0,66.88,-211.28,-518.32
348385.3776,37.271,129.564,1009.306,630.0,2555.0,-105.0,92.72,-211.28,-504.64
348385.4276,45.506,133.285,1004.06,1207.5,3045.0,-157.5,86.64,-206.72,-498.56
348385.4776,26.718,136.213,1007.72,-201.25,2756.25,-1067.5,83.6,-218.88,-509.2
348385.5276,34.038,131.699,1007.293,-621.25,2520.0,-1137.5,71.44,-208.24,-504.64
348385.5776,37.515,130.418,1007.903,26.25,3465.0,201.25,94.24,-212.8,-504.64
348385.6276,31.72,129.076,1008.33,43.75,3333.75,-428.75,79.04,-208.24,-512.24
348385.6776,36.478,131.455,1005.402,227.5,3080.0,-1137.5,85.12,-199.12,-519.84
348385.7276,35.685,134.017,1006.683,-455.0,3858.75,-980.0,91.2,-215.84,-503.12
348385.7776,24.034,128.588,1009.367,-157.5,3211.25,-1566.25,95.76,-212.8,-500.08
348385.8276,30.683,134.261,1006.256,-157.5,2721.25,-1286.25,85.12,-228.0,-513.76
348385.8776,32.33,132.614,1006.256,-8.75,3045.0,-542.5,89.68,-202.16,-486.4
348385.9276,25.132,133.956,1011.807,-778.75,2511.25,-1058.75,79.04,-212.8,-495.52
348385.9776,39.589,118.889,1007.171,-1006.25,2257.5,-26.25,82.08,-217.36,-509.2
348386.0276,37.82,119.56,1009.306,315.0,2940.0,647.5,85.12,-202.16,-506.16
348386.0776,36.417,132.431,1008.452,113.75,2782.5,288.75,85.12,-206.72,-512.24
348386.1276,37.881,131.699,1006.744,1120.0,2975.0,-953.75,89.68,-221.92,-497.04
348386.1776,31.964,139.202,1011.014,1548.75,2948.75,-831.25,83.6,-209.76,-510.72
348386.2276,35.258,137.921,1007.537,-166.25,2668.75,761.25,91.2,-221.92,-516.8
348386.2776,36.844,136.152,1006.5,236.25,2686.25,542.5,94.24,-211.28,-506.16
348386.3276,36.661,135.176,1007.903,183.75,3045.0,-883.75,83.6,-197.6,-498.56
348386.3776,36.905,138.104,1007.537,-647.5,3211.25,-1820.0,85.12,-202.16,-516.8
348386.4276,34.343,132.675,1006.622,-1522.5,3666.25,-1531.25,92.72,-206.72,-513.76
348386.4776,29.524,124.928,1007.842,-1785.0,2861.25,-612.5,85.12,-205.2,-510.72
348386.5276,33.184,121.085,1006.805,-1102.5,2423.75,8.75,83.6,-203.68,-513.76
348386.5776,32.025,116.693,1007.293,-665.0,3263.75,166.25,88.16,-209.76,-513.76
348386.6276,31.415,118.889,1010.038,953.75,3097.5,-1076.25,89.68,-211.28,-504.64
348386.6776,34.16,131.76,1011.014,-8.75,2992.5,-1478.75,88.16,-208.24,-503.12
348386.7276,31.903,124.989,1009.062,-105.0,3316.25,-770.0,76.0,-218.88,-521.36
348386.7778,25.62,123.525,1008.147,446.25,2957.5,-910.0,83.6,-209.76,-487.92
348386.8276,33.123,127.856,1005.951,280.0,2371.25,-918.75,101.84,-205.2,-497.04
348386.8777,38.918,130.662,1006.012,1163.75,2476.25,-288.75,86.64,-208.24,-500.08
348386.9276,31.415,137.311,1005.768,306.25,3447.5,157.5,82.08,-200.64,-503.12
348386.9777,29.646,127.246,1008.574,-122.5,2047.5,-787.5,100.32,-211.28,-510.72
348387.0276,37.271,129.503,1008.574,621.25,2126.25,-761.25,76.0,-206.72,-515.28
348387.0783,37.088,134.017,1006.927,210.0,3001.25,105.0,76.0,-206.72,-507.68
348387.1276,35.136,135.481,1005.463,-78.75,2905.0,-253.75,94.24,-211.28,-515.28
348387.1776,34.953,131.577,1006.073,-621.25,2458.75,-778.75,80.56,-208.24,-500.08
348387.2276,35.38,129.198,1009.062,-638.75,2992.5,-673.75,82.08,-211.28,-503.12
348387.2776,35.197,128.893,1007.964,-936.25,2677.5,-682.5,86.64,-215.84,-518.32
348387.3276,41.541,124.318,1008.513,-227.5,2388.75,-306.25,76.0,-206.72,-515.28
348387.3776,40.992,124.806,1008.208,236.25,3150.0,-35.0,88.16,-211.28,-498.56
348387.4276,34.526,132.797,1007.171,673.75,3517.5,-1102.5,80.56,-212.8,-490.96
348387.4776,35.258,131.76,1002.901,-700.0,3097.5,-1540.0,76.0,-208.24,-518.32
348387.5276,36.783,125.111,1005.097,-1058.75,3307.5,-1382.5,82.08,-203.68,-513.76
348387.5776,38.613,124.562,1010.343,306.25,2712.5,-463.75,94.24,-203.68,-512.24
348387.6276,31.415,125.477,1007.842,787.5,2651.25,-227.5,71.44,-221.92,-506.16
348387.6776,40.931,133.529,1007.354,533.75,3360.0,-691.25,83.6,-205.2,-513.76
348387.7276,32.025,131.15,1008.696,367.5,3228.75,-1260.0,88.16,-217.36,-515.28
348387.7776,31.293,129.076,1010.77,1330.0,2318.75,-1750.0,94.24,-206.72,-504.64
348387.8276,39.833,135.664,1006.988,621.25,2791.25,-953.75,86.64,-211.28,-510.72
348387.8776,36.722,134.139,1006.561,245.0,3351.25,-183.75,86.64,-208.24,-504.64
348387.9276,33.489,130.723,1008.086,-253.75,3045.0,-831.25,88.16,-212.8,-501.6
348387.9776,33.855,129.198,1006.134,-341.25,2817.5,-656.25,86.64,-211.28,-504.64
348388.0276,33.367,128.1,1005.89,-323.75,2835.0,-253.75,79.04,-208.24,-513.76
348388.0776,39.223,129.869,1006.744,-376.25,2388.75,-936.25,69.92,-215.84,-515.28
348388.1276,42.395,128.71,1006.805,-735.0,2887.5,-630.0,80.56,-215.84,-486.4
348388.1776,36.905,126.636,1010.953,831.25,3710.0,-1032.5,82.08,-217.36,-495.52
348388.2276,32.33,134.749,1007.964,376.25,3561.25,-1470.0,80.56,-202.16,-521.36
348388.2776,34.16,131.394,1006.378,105.0,3115.0,-1032.5,91.2,-211.28,-509.2
348388.3276,29.158,127.734,1007.293,-166.25,2966.25,-201.25,82.08,-205.2,-506.16
348388.3776,33.123,128.954,1010.526,113.75,2590.0,-245.0,85.12,-203.68,-497.04
348388.4276,40.626,129.198,1008.391,533.75,2651.25,-586.25,91.2,-211.28,-512.24
348388.4776,37.149,133.712,1006.927,61.25,3473.75,-1093.75,95.76,-212.8,-516.8
348388.5276,30.744,132.797,1006.012,-621.25,2957.5,-2213.75,89.68,-226.48,-503.12
348388.5776,34.892,125.477,1007.537,113.75,2581.25,-1426.25,77.52,-206.72,-512.24
348388.6276,37.21,132.492,1004.365,463.75,2992.5,-533.75,79.04,-209.76,-509.2
348388.6776,28.914,127.673,1002.84,-402.5,3211.25,-1085.0,91.2,-212.8,-500.08
348388.7276,31.781,130.174,1007.964,-122.5,2625.0,-1408.75,91.2,-214.32,-507.68
348388.7776,36.173,126.27,1009.367,420.0,2852.5,-551.25,86.64,-208.24,-512.24
348388.8276,30.805,130.174,1010.648,735.0,1951.25,-490.0,89.68,-208.24,-509.2
348388.8776,38.491,131.028,1009.306,297.5,2248.75,-490.0,85.12,-200.64,-498.56
348388.9276,36.356,132.614,1004.243,288.75,2563.75,-901.25,80.56,-209.76,-504.64
348388.9776,35.075,133.529,1007.781,700.0,2397.5,-2913.75,77.52,-209.76,-512.24
348389.0276,41.602,139.507,1005.402,-507.5,2957.5,-3080.0,85.12,-209.76,-518.32
348389.0776,38.186,129.808,1003.755,-402.5,2598.75,-1452.5,86.64,-220.4,-497.04
348389.1276,37.088,124.013,1008.757,-166.25,3351.25,-630.0,89.68,-214.32,-503.12
348389.1776,38.613,127.673,1004.426,831.25,2817.5,-752.5,83.6,-214.32,-513.76
348389.2276,36.783,132.614,1008.269,848.75,2957.5,-883.75,97.28,-209.76,-509.2
348389.2776,37.21,135.298,1009.245,288.75,3946.25,-673.75,101.84,-209.76,-506.16
348389.3276,28.426,134.078,1008.635,-525.0,3071.25,-805.0,72.96,-214.32,-497.04
348389.3776,40.077,130.723,1006.439,192.5,3071.25,-218.75,89.68,-221.92,-512.24
348389.4276,30.561,136.335,1010.892,-262.5,2896.25,420.0,89.68,-211.28,-515.28
348389.4776,33.001,130.784,1007.476,-35.0,2817.5,-271.25,92.72,-214.32,-501.6
348389.5276,33.001,134.444,1002.84,-743.75,3368.75,-1461.25,77.52,-218.88,-512.24
348389.5776,27.389,128.71,1006.988,-796.25,2520.0,-2607.5,88.16,-215.84,-509.2
348389.6276,33.123,129.869,1012.173,-253.75,1820.0,-1855.0,86.64,-215.84,-503.12
348389.6776,41.358,127.185,1006.744,0.0,3027.5,96.25,82.08,-205.2,-494.0
348389.7276,37.942,130.845,1007.232,971.25,3106.25,262.5,86.64,-214.32,-510.72
348389.7776,34.526,134.017,1006.988,-358.75,3202.5,-831.25,80.56,-215.84,-516.8
348389.8276,29.89,127.917,1006.988,-533.75,2511.25,-927.5,85.12,-217.36,-504.64
348389.8776,40.016,123.159,1007.598,-227.5,2747.5,-122.5,71.44,-209.76,-512.24
348389.9276,33.977,126.758,1010.709,936.25,2782.5,-183.75,68.4,-200.64,-490.96
348389.9776,34.16,128.1,1008.391,1181.25,2038.75,-647.5,86.64,-209.76,-513.76
348390.0276,36.112,140.239,1006.744,1058.75,3377.5,-980.0,89.68,-217.36,-498.56
348390.0776,26.413,137.372,1008.025,-122.5,2362.5,-735.0,85.12,-211.28,-503.12
348390.1276,39.162,131.089,1005.402,-26.25,1837.5,-516.25,80.56,-211.28,-513.76
348390.1776,42.456,135.237,1006.5,17.5,2651.25,437.5,69.92,-211.28,-494.0
348390.2277,39.223,136.762,1007.537,-166.25,2520.0,61.25,79.04,-212.8,-510.72
348390.2776,38.918,133.468,1005.28,-726.25,2703.75,-813.75,80.56,-218.88,-500.08
348390.3277,38.491,130.906,1005.707,-778.75,2598.75,-1268.75,80.56,-206.72,-509.2
348390.3776,41.358,125.66,1007.11,-848.75,2170.0,-1041.25,83.6,-212.8,-506.16
348390.4276,46.055,125.05,1006.317,-682.5,3027.5,-586.25,82.08,-209.76,-515.28
348390.4776,40.26,125.355,1009.855,218.75,2712.5,-542.5,83.6,-218.88,-507.68
348390.5276,38.369,130.784,1009.367,-446.25,3228.75,-647.5,76.0,-203.68,-513.76
348390.5776,38.552,125.782,1006.012,-332.5,2782.5,-315.0,92.72,-218.88,-512.24
348390.6276,38.796,120.109,1005.829,341.25,3088.75,-131.25,91.2,-212.8,-497.04
348390.6776,38.064,127.612,1010.282,866.25,2467.5,-498.75,80.56,-212.8,-503.12
348390.7276,42.212,134.078,1005.524,35.0,2432.5,-857.5,68.4,-215.84,-509.2
348390.7776,38.308,132.126,1007.537,-542.5,3736.25,-778.75,88.16,-215.84,-500.08
348390.8276,31.11,129.198,1013.576,-708.75,2590.0,-1032.5,89.68,-215.84,-501.6
348390.8776,44.042,123.708,1011.685,253.75,2161.25,-1006.25,71.44,-203.68,-500.08
348390.9276,43.798,126.636,1008.086,656.25,2922.5,-148.75,72.96,-211.28,-519.84
348390.9776,40.321,129.198,1008.147,8.75,2957.5,-1076.25,92.72,-202.16,-504.64
348391.0276,40.26,128.954,1007.232,358.75,2397.5,-1408.75,85.12,-212.8,-498.56
348391.0776,41.968,129.015,1004.67,-210.0,2546.25,-638.75,72.96,-211.28,-515.28
348391.1276,41.175,122.122,1007.598,-166.25,2520.0,-192.5,77.52,-208.24,-504.64
348391.1776,44.286,124.379,1009.916,-70.0,2756.25,-490.0,92.72,-214.32,-503.12
348391.2276,46.909,128.649,1006.744,1076.25,3220.0,-612.5,88.16,-200.64,-501.6
348391.2776,39.528,131.821,1006.5,-183.75,3220.0,-761.25,74.48,-215.84,-504.64
348391.3276,37.332,128.71,1006.683,-866.25,2922.5,-918.75,86.64,-206.72,-513.76
348391.3776,43.005,123.586,1008.818,148.75,2782.5,-490.0,83.6,-218.88,-490.96
348391.4276,44.286,129.442,1006.622,350.0,2966.25,-586.25,80.56,-205.2,-501.6
348391.4776,45.079,129.32,1006.012,910.0,2896.25,-971.25,77.52,-211.28,-515.28
348391.5276,37.82,135.237,1007.049,-463.75,3473.75,-700.0,88.16,-218.88,-507.68
348391.5776,37.393,129.747,1006.134,-805.0,2660.0,-1111.25,83.6,-202.16,-509.2
348391.6276,42.822,125.477,1006.256,-218.75,2843.75,-551.25,74.48,-203.68,-498.56
348391.6776,40.809,129.32,1006.012,-166.25,3386.25,-210.0,77.52,-202.16,-513.76
348391.7276,35.319,124.562,1009.855,-586.25,2913.75,-901.25,91.2,-209.76,-506.16
348391.7776,39.772,126.941,1005.951,-455.0,2931.25,-577.5,68.4,-209.76,-512.24
348391.8276,38.186,123.891,1008.025,-717.5,2878.75,-437.5,82.08,-208.24,-510.72
348391.8776,43.188,121.878,1010.953,-105.0,2458.75,-761.25,79.04,-215.84,-512.24
348391.9276,45.018,124.013,1010.465,376.25,2896.25,-691.25,83.6,-215.84,-506.16
348391.9776,37.21,132.431,1008.269,192.5,3683.75,-1102.5,82.08,-203.68,-512.24
348392.0276,35.502,131.76,1005.097,-463.75,3027.5,-1365.0,76.0,-203.68,-525.92
348392.0776,38.796,125.05,1007.781,-595.0,2765.0,-918.75,86.64,-206.72,-507.68
348392.1276,44.774,124.013,1007.964,26.25,2738.75,78.75,82.08,-208.24,-500.08
348392.1776,38.918,127.185,1006.927,148.75,2520.0,-481.25,74.48,-212.8,-503.12
348392.2276,43.859,130.784,1008.513,113.75,3036.25,-1058.75,82.08,-212.8,-516.8
348392.2776,39.65,128.161,1006.683,-385.0,3150.0,-813.75,100.32,-208.24,-506.16
348392.3276,38.674,124.196,1012.356,-78.75,2555.0,-1277.5,79.04,-211.28,-495.52
348392.3776,46.421,130.296,1003.45,-245.0,3036.25,-603.75,76.0,-205.2,-506.16
348392.4276,42.273,126.148,1011.441,-498.75,3307.5,-673.75,77.52,-209.76,-503.12
348392.4776,37.759,120.841,1009.245,-437.5,3018.75,-1198.75,85.12,-221.92,-486.4
348392.5276,38.735,120.109,1008.574,140.0,2633.75,-743.75,80.56,-211.28,-510.72
348392.5776,43.676,120.597,1009.55,367.5,2703.75,-481.25,62.32,-208.24,-521.36
348392.6276,43.066,121.329,1008.147,743.75,2878.75,-1076.25,95.76,-209.76,-498.56
348392.6776,43.798,124.196,1007.598,1225.0,2948.75,-1163.75,71.44,-209.76,-480.32
348392.7276,32.818,130.784,1006.744,227.5,3298.75,-630.0,80.56,-209.76,-504.64
348392.7776,35.014,128.405,1007.049,-210.0,2345.0,-901.25,88.16,-211.28,-506.16
348392.8276,44.347,120.353,1008.757,113.75,2887.5,-665.0,86.64,-220.4,-501.6
348392.8776,35.258,127.002,1010.465,533.75,2948.75,-953.75,71.44,-212.8,-494.0
348392.9276,44.103,129.076,1004.609,1251.25,2520.0,-1102.5,82.08,-209.76,-507.68
348392.9776,34.526,139.507,1006.012,-385.0,3071.25,-988.75,83.6,-212.8,-509.2
348393.0276,34.099,133.59,1008.452,-1128.75,2065.0,-1487.5,91.2,-203.68,-494.0
348393.0776,44.469,124.074,1009.306,-595.0,2493.75,-822.5,79.04,-208.24,-500.08
348393.1276,45.018,123.403,1007.903,-665.0,3228.75,-376.25,69.92,-205.2,-525.92
348393.1776,40.504,121.268,1009.062,-297.5,3176.25,-910.0,95.76,-215.84,-507.68
348393.2276,41.053,127.185,1007.72,192.5,2948.75,-848.75,62.32,-205.2,-506.16
348393.2776,42.334,126.636,1008.696,-332.5,3062.5,-481.25,74.48,-212.8,-510.72
348393.3276,38.979,120.841,1008.879,-402.5,2861.25,-787.5,79.04,-212.8,-497.04
348393.3776,45.994,117.974,1007.903,218.75,2948.75,-813.75,85.12,-224.96,-504.64
348393.4276,42.761,127.49,1008.513,1102.5,3876.25,-857.5,83.6,-208.24,-506.16
348393.4776,36.6,123.891,1009.123,262.5,3045.0,-1190.0,80.56,-209.76,-519.84
348393.5276,35.563,124.562,1007.293,210.0,3281.25,-883.75,86.64,-215.84,-509.2
348393.5778,38.003,125.416,1008.147,971.25,2415.0,-358.75,88.16,-209.76,-503.12
348393.6276,38.125,129.625,1009.977,796.25,2843.75,-577.5,80.56,-215.84,-506.16
348393.6777,42.822,134.017,1008.94,175.0,3447.5,-735.0,80.56,-217.36,-512.24
348393.7276,35.075,126.88,1007.659,-770.0,2581.25,-708.75,91.2,-211.28,-494.0
348393.7777,44.347,123.342,1009.672,-437.5,2791.25,-840.0,82.08,-221.92,-512.24
348393.8276,44.408,129.076,1007.293,-166.25,3272.5,-437.5,68.4,-211.28,-519.84
348393.8776,40.016,130.479,1006.134,-516.25,3517.5,-481.25,95.76,-220.4,-495.52
348393.9276,33.062,127.734,1008.269,-516.25,3316.25,-936.25,95.76,-208.24,-512.24
348393.9776,38.003,123.525,1008.452,-586.25,2572.5,-420.0,85.12,-205.2,-518.32
348394.0276,39.772,119.621,1007.598,-52.5,2528.75,-393.75,77.52,-203.68,-521.36
348394.0776,40.748,118.706,1008.818,962.5,2275.0,-551.25,82.08,-221.92,-501.6
348394.1276,41.175,127.185,1006.988,1050.0,2458.75,-516.25,80.56,-211.28,-486.4
348394.1776,36.722,131.394,1005.219,-857.5,3018.75,-437.5,82.08,-215.84,-513.76
348394.2276,41.419,119.56,1006.683,-665.0,2388.75,-516.25,95.76,-208.24,-506.16
348394.2776,44.469,116.022,1008.391,43.75,2913.75,-43.75,79.04,-214.32,-504.64
348394.3276,38.674,125.721,1012.905,901.25,2878.75,-350.0,63.84,-208.24,-510.72
348394.3776,47.763,131.028,1006.927,1015.0,3115.0,-1111.25,85.12,-211.28,-486.4
348394.4276,31.232,132.431,1006.744,-78.75,2773.75,-1102.5,100.32,-206.72,-506.16
348394.4776,43.249,128.71,1007.72,-253.75,2222.5,-481.25,74.48,-206.72,-504.64
348394.5276,41.114,125.782,1008.086,-17.5,2406.25,315.0,85.12,-220.4,-513.76
348394.5776,42.212,128.832,1007.781,-813.75,2712.5,-113.75,76.0,-203.68,-501.6
348394.6276,41.846,123.952,1009.245,-761.25,2633.75,-1085.0,89.68,-208.24,-498.56
348394.6776,39.04,123.342,1007.537,-542.5,2380.0,-1583.75,71.44,-209.76,-498.56
348394.7276,43.615,123.891,1006.378,-717.5,2476.25,-980.0,82.08,-197.6,-513.76
348394.7776,41.785,115.595,1012.295,-630.0,3062.5,-437.5,85.12,-197.6,-509.2
348394.8276,47.763,125.599,1006.073,1198.75,2931.25,-1321.25,85.12,-218.88,-513.76
348394.8776,44.164,133.285,1008.574,8.75,3141.25,-1260.0,77.52,-205.2,-503.12
348394.9276,42.09,119.316,1008.635,-577.5,2905.0,-813.75,69.92,-202.16,-515.28
348394.9776,41.968,116.327,1007.293,-183.75,2791.25,-673.75,86.64,-212.8,-495.52
348395.0276,43.981,122.793,1006.378,805.0,3053.75,-402.5,92.72,-214.32,-487.92
348395.0776,47.641,128.405,1002.779,883.75,2835.0,-892.5,85.12,-206.72,-509.2
348395.1276,38.064,128.71,1009.367,385.0,3360.0,-1260.0,86.64,-202.16,-519.84
348395.1776,42.334,126.453,1007.232,-157.5,2502.5,-936.25,97.28,-215.84,-498.56
348395.2276,45.628,124.928,1008.94,-192.5,2913.75,-463.75,77.52,-214.32,-498.56
348395.2776,44.652,126.758,1008.452,61.25,3368.75,-367.5,77.52,-200.64,-519.84
348395.3276,42.09,124.867,1006.622,-446.25,3535.0,-962.5,86.64,-211.28,-515.28
348395.3776,40.382,121.634,1006.622,-682.5,3150.0,-1128.75,80.56,-199.12,-498.56
348395.4276,40.443,120.353,1008.391,-516.25,2642.5,-735.0,69.92,-217.36,-501.6
348395.4776,44.225,119.621,1008.452,-481.25,2940.0,-253.75,80.56,-212.8,-507.68
348395.5276,40.626,118.462,1011.441,507.5,3316.25,542.5,85.12,-205.2,-494.0
348395.5776,40.504,127.612,1008.086,840.0,3027.5,-1277.5,85.12,-223.44,-510.72
348395.6276,41.724,126.514,1007.232,-367.5,2747.5,-1268.75,76.0,-212.8,-498.56
348395.6776,38.491,118.889,1009.55,-253.75,3228.75,-682.5,69.92,-209.76,-486.4
348395.7276,38.491,116.693,1007.903,306.25,2616.25,-525.0,86.64,-223.44,-500.08
348395.7776,40.138,126.636,1011.197,945.0,2660.0,-586.25,86.64,-215.84,-498.56
348395.8276,45.811,132.736,1006.927,280.0,3421.25,-621.25,68.4,-215.84,-510.72
348395.8776,36.966,132.98,1006.744,-420.0,2983.75,-927.5,79.04,-211.28,-498.56
348395.9276,41.663,123.647,1007.72,-498.75,2590.0,-971.25,86.64,-208.24,-512.24
348395.9776,46.726,122.793,1009.001,157.5,2703.75,-245.0,74.48,-205.2,-515.28
348396.0276,42.212,128.1,1007.72,-166.25,3071.25,-341.25,92.72,-208.24,-506.16
348396.0776,38.857,126.026,1007.171,-481.25,2975.0,-1093.75,82.08,-202.16,-513.76
348396.1276,41.48,122.488,1008.086,-148.75,2712.5,-927.5,71.44,-202.16,-500.08
348396.1776,40.199,118.889,1008.147,-367.5,2625.0,-218.75,82.08,-208.24,-518.32
348396.2276,44.469,117.059,1008.452,-218.75,2493.75,-437.5,82.08,-218.88,-516.8
348396.2776,46.726,119.56,1009.306,831.25,3298.75,-936.25,79.04,-211.28,-501.6
348396.3276,41.114,129.93,1007.171,437.5,3351.25,-1242.5,86.64,-208.24,-498.56
348396.3776,39.162,125.294,1004.792,-236.25,2423.75,-1146.25,80.56,-212.8,-507.68
348396.4276,41.785,121.024,1008.94,-516.25,2817.5,26.25,77.52,-212.8,-518.32
348396.4776,41.907,117.852,1010.709,516.25,2520.0,-140.0,74.48,-214.32,-498.56
348396.5276,47.702,125.233,1006.927,638.75,2616.25,-1058.75,74.48,-209.76,-506.16
348396.5776,45.811,135.664,1007.598,122.5,3412.5,-1067.5,79.04,-208.24,-518.32
348396.6276,36.6,124.928,1010.099,-621.25,2835.0,-752.5,79.04,-208.24,-487.92
348396.6776,47.336,121.695,1005.89,-315.0,2817.5,-603.75,92.72,-200.64,-501.6
348396.7276,46.116,124.684,1009.001,-350.0,3298.75,0.0,86.64,-205.2,-500.08
348396.7776,42.883,122.671,1008.757,-201.25,3430.0,-358.75,83.6,-214.32,-519.84
348396.8276,39.833,121.878,1008.818,-183.75,2992.5,-1102.5,89.68,-199.12,-515.28
348396.8776,42.395,120.78,1008.452,-332.5,2581.25,-980.0,82.08,-211.28,-497.04
348396.9279,46.848,116.754,1009.306,-78.75,2598.75,8.75,80.56,-200.64,-515.28
348396.9776,46.665,118.218,1008.025,402.5,2668.75,-183.75,77.52,-194.56,-509.2
348397.0277,46.421,127.246,1009.855,603.75,3045.0,-1137.5,91.2,-208.24,-498.56
348397.0776,42.395,132.797,1006.561,-35.0,3333.75,-892.5,76.0,-212.8,-497.04
348397.1277,45.811,118.767,1006.927,-892.5,3106.25,-306.25,66.88,-208.24,-510.72
348397.1776,42.456,113.704,1009.428,411.25,2843.75,-945.0,72.96,-197.6,-521.36
348397.2276,44.957,120.719,1008.696,682.5,3115.0,-1093.75,83.6,-202.16,-509.2
348397.2776,47.336,126.575,1003.999,1408.75,3080.0,-1041.25,82.08,-200.64,-512.24
348397.3276,35.441,132.187,1010.282,498.75,3141.25,-1067.5,72.96,-202.16,-510.72
348397.3776,43.798,125.172,1007.964,-262.5,2091.25,-647.5,83.6,-214.32,-513.76
348397.4276,48.8,124.074,1007.11,105.0,2511.25,-210.0,83.6,-205.2,-500.08
348397.4776,43.859,126.392,1007.354,78.75,3316.25,-542.5,79.04,-221.92,-497.04
348397.5276,40.077,126.575,1008.391,-621.25,2861.25,-1120.0,82.08,-200.64,-504.64
348397.5776,39.955,120.414,1006.805,-516.25,2721.25,-787.5,82.08,-203.68,-515.28
348397.6276,43.066,117.486,1006.439,-542.5,2695.0,-306.25,88.16,-209.76,-509.2
348397.6776,46.36,118.279,1008.086,-481.25,2528.75,-796.25,80.56,-200.64,-503.12
348397.7276,45.872,117.059,1009.672,927.5,2686.25,-1067.5,76.0,-196.08,-516.8
348397.7776,42.273,129.137,1007.903,507.5,3080.0,-1251.25,82.08,-209.76,-509.2
348397.8276,40.016,124.257,1010.465,-367.5,2353.75,-612.5,77.52,-208.24,-500.08
348397.8776,44.591,116.998,1006.988,-43.75,2773.75,-78.75,85.12,-205.2,-503.12
348397.9276,44.774,116.876,1007.72,656.25,2555.0,-297.5,83.6,-202.16,-498.56
348397.9776,42.029,124.135,1006.866,1006.25,2065.0,-1330.0,94.24,-212.8,-506.16
348398.0276,46.543,131.089,1004.121,568.75,3456.25,-1443.75,83.6,-211.28,-507.68
348398.0776,36.051,132.919,1007.842,8.75,2450.0,-2065.0,82.08,-211.28,-518.32
348398.1276,47.092,126.697,1008.879,-997.5,2161.25,-1435.0,85.12,-211.28,-498.56
348398.1776,50.874,122.122,1008.452,-402.5,2791.25,297.5,77.52,-208.24,-510.72
348398.2276,45.445,121.573,1010.282,-253.75,2931.25,-245.0,76.0,-194.56,-504.64
348398.2776,43.676,121.756,1007.293,-227.5,2441.25,-997.5,83.6,-202.16,-501.6
348398.3276,45.628,121.451,1004.487,35.0,2397.5,-498.75,85.12,-200.64,-497.04
348398.3776,50.386,125.355,1007.72,-323.75,2371.25,-105.0,69.92,-202.16,-500.08
348398.4276,49.105,122.244,1009.367,-603.75,2826.25,-271.25,79.04,-209.76,-518.32
348398.4776,50.63,117.486,1010.038,201.25,3132.5,-805.0,83.6,-215.84,-504.64
348398.5276,47.946,124.928,1008.513,-8.75,3508.75,-997.5,80.56,-209.76,-504.64
348398.5776,44.286,123.098,1010.648,-166.25,2992.5,-1198.75,80.56,-218.88,-507.68
348398.6276,51.118,118.157,1008.086,122.5,3088.75,-840.0,68.4,-211.28,-515.28
348398.6776,45.994,119.804,1005.28,866.25,2922.5,-490.0,79.04,-202.16,-504.64
348398.7276,49.227,125.599,1006.988,700.0,2756.25,-691.25,74.48,-212.8,-500.08
348398.7776,53.924,132.248,1006.805,227.5,3771.25,-1198.75,76.0,-211.28,-503.12
348398.8276,38.247,127.429,1006.866,-437.5,2878.75,-1347.5,89.68,-200.64,-503.12
348398.8776,50.386,124.562,1007.293,-26.25,2878.75,-883.75,71.44,-208.24,-504.64
348398.9276,51.24,126.331,1011.38,-35.0,3447.5,-113.75,65.36,-206.72,-516.8
348398.9776,42.822,124.806,1006.683,-306.25,3368.75,-1006.25,82.08,-211.28,-509.2
348399.0276,44.408,122.854,1009.184,-621.25,3088.75,-1216.25,86.64,-206.72,-506.16
348399.0776,43.737,120.902,1009.428,-236.25,3158.75,-612.5,82.08,-212.8,-497.04
348399.1276,42.639,119.316,1010.221,35.0,2817.5,-700.0,76.0,-209.76,-515.28
348399.1776,45.567,118.706,1011.136,140.0,2598.75,-778.75,62.32,-209.76,-507.68
348399.2276,50.996,119.316,1007.903,980.0,3255.0,-481.25,89.68,-208.24,-492.48
348399.2776,44.408,126.209,1009.062,1093.75,3465.0,-945.0,83.6,-212.8,-503.12
348399.3276,41.968,129.381,1007.293,-218.75,2791.25,-1023.75,71.44,-206.72,-504.64
348399.3776,45.689,120.841,1009.55,-288.75,2922.5,-376.25,82.08,-220.4,-497.04
348399.4276,46.726,120.536,1008.574,603.75,2765.0,-245.0,88.16,-221.92,-518.32
348399.4776,45.811,126.697,1008.269,367.5,2852.5,-717.5,79.04,-214.32,-504.64
348399.5276,50.813,129.137,1006.805,245.0,3526.25,-673.75,72.96,-209.76,-515.28
348399.5776,36.966,127.429,1009.55,-35.0,2660.0,-1155.0,88.16,-205.2,-512.24
348399.6276,50.752,120.597,1006.744,-105.0,2721.25,-665.0,85.12,-208.24,-507.68
348399.6776,48.19,124.989,1009.245,-61.25,2957.5,-148.75,76.0,-214.32,-516.8
348399.7276,46.604,123.403,1008.269,-87.5,2660.0,-980.0,68.4,-212.8,-521.36
348399.7776,45.14,125.721,1005.585,-8.75,2782.5,-665.0,83.6,-214.32,-500.08
348399.8276,46.055,124.989,1005.402,-507.5,2782.5,87.5,74.48,-214.32,-497.04
348399.8776,44.164,117.73,1009.794,-201.25,2905.0,-577.5,62.32,-199.12,-500.08
348399.9276,45.811,120.658,1011.014,148.75,2660.0,-1155.0,76.0,-196.08,-507.68
348399.9776,50.691,122.427,1006.439,1443.75,3473.75,-971.25,92.72,-214.32,-507.68
348400.0276,47.153,133.59,1008.208,376.25,3946.25,-927.5,60.8,-212.8,-509.2
348400.0776,40.382,127.856,1009.062,-210.0,3062.5,-945.0,69.92,-208.24,-516.8
348400.1276,43.737,122.732,1006.5,-682.5,2931.25,-490.0,82.08,-211.28,-504.64
348400.1776,47.153,119.682,1006.195,17.5,2642.5,-332.5,86.64,-212.8,-498.56
348400.2276,50.447,124.501,1008.452,297.5,2712.5,-490.0,68.4,-197.6,-506.16
348400.2778,47.824,131.821,1008.147,-341.25,3605.0,-647.5,77.52,-214.32,-510.72
348400.3276,36.966,124.257,1009.977,-376.25,2686.25,-1172.5,92.72,-211.28,-503.12
348400.3777,45.689,122.915,1007.598,-122.5,2292.5,-1216.25,72.96,-211.28,-504.64
348400.4276,49.837,128.039,1004.975,43.75,3246.25,-350.0,76.0,-206.72,-503.12
348400.4777,40.931,125.843,1008.33,-656.25,3351.25,-1356.25,71.44,-205.2,-507.68
348400.5276,43.066,122.732,1008.391,-577.5,2852.5,-1566.25,86.64,-206.72,-513.76
348400.5776,44.042,120.048,1007.171,-428.75,2931.25,-288.75,72.96,-202.16,-509.2
348400.6276,42.944,120.78,1006.805,-87.5,2765.0,-297.5,71.44,-200.64,-509.2
348400.6776,47.336,118.767,1007.903,323.75,2808.75,-1041.25,82.08,-221.92,-504.64
348400.7276,48.8,131.15,1008.818,105.0,3552.5,-1006.25,88.16,-208.24,-509.2
348400.7776,39.223,123.403,1006.988,-1225.0,3307.5,-551.25,69.92,-211.28,-510.72
348400.8276,43.005,113.155,1007.293,-595.0,2940.0,-708.75,88.16,-212.8,-506.16
348400.8776,42.822,111.874,1009.001,175.0,2817.5,-761.25,83.6,-217.36,-487.92
348400.9276,48.068,122.244,1008.086,1268.75,2677.5,-560.0,80.56,-221.92,-495.52
348400.9776,44.347,127.49,1009.245,411.25,3500.0,-1303.75,77.52,-205.2,-498.56
348401.0276,35.868,128.588,1005.585,35.0,2607.5,-1645.0,65.36,-202.16,-503.12
348401.0776,49.532,124.623,1007.293,-341.25,2843.75,-708.75,80.56,-208.24,-516.8
348401.1276,47.763,125.355,1007.11,-262.5,3272.5,-70.0,77.52,-206.72,-489.44
348401.1776,42.273,121.207,1012.539,-673.75,3167.5,-1015.0,80.56,-215.84,-501.6
348401.2276,42.639,122.0,1008.086,-463.75,2922.5,-945.0,76.0,-212.8,-497.04
348401.2776,41.48,118.828,1010.587,-446.25,3001.25,-638.75,83.6,-209.76,-506.16
348401.3276,45.201,117.547,1006.988,-96.25,2563.75,-866.25,83.6,-211.28,-504.64
348401.3776,46.421,118.767,1010.16,-78.75,2712.5,-542.5,82.08,-200.64,-507.68
348401.4276,45.567,123.464,1007.781,778.75,2957.5,-1023.75,79.04,-205.2,-504.64
348401.4776,44.042,123.403,1006.317,-1093.75,2625.0,-796.25,83.6,-199.12,-503.12
348401.5276,48.922,115.351,1007.415,-1198.75,2660.0,-525.0,71.44,-215.84,-504.64
348401.5776,42.944,111.813,1010.892,297.5,2773.75,-595.0,68.4,-211.28,-504.64
348401.6276,43.981,118.279,1008.513,533.75,2861.25,-822.5,77.52,-209.76,-507.68
348401.6776,50.203,121.268,1010.282,682.5,3543.75,-1076.25,86.64,-202.16,-500.08
348401.7276,37.759,124.196,1008.818,437.5,3150.0,-1207.5,76.0,-196.08,-504.64
348401.7776,44.713,120.353,1007.11,-236.25,2450.0,-1058.75,83.6,-202.16,-513.76
348401.8276,46.36,123.83,1007.781,227.5,2931.25,-341.25,89.68,-215.84,-503.12
348401.8776,48.556,124.501,1008.147,-367.5,2896.25,-542.5,60.8,-206.72,-513.76
348401.9276,43.31,119.926,1008.086,-306.25,2808.75,-927.5,82.08,-205.2,-512.24
348401.9776,45.323,118.218,1007.72,-271.25,2773.75,-857.5,85.12,-214.32,-503.12
348402.0276,46.177,120.109,1006.866,-157.5,2686.25,-822.5,85.12,-208.24,-501.6
348402.0776,46.238,116.51,1009.672,-288.75,2660.0,-857.5,83.6,-206.72,-498.56
348402.1276,46.299,113.948,1006.927,280.0,2642.5,-840.0,74.48,-208.24,-516.8
348402.1776,49.471,119.804,1004.975,1286.25,3018.75,-1111.25,85.12,-200.64,-509.2
348402.2276,41.48,127.612,1008.33,17.5,3237.5,-735.0,82.08,-206.72,-495.52
348402.2776,47.641,117.425,1008.33,-752.5,3062.5,-638.75,82.08,-221.92,-503.12
348402.3276,45.628,115.839,1008.818,332.5,2992.5,-936.25,66.88,-206.72,-503.12
348402.3776,47.214,121.695,1008.879,358.75,3071.25,-1023.75,66.88,-217.36,-495.52
348402.4276,49.715,120.658,1007.232,1093.75,3123.75,-1172.5,71.44,-203.68,-503.12
348402.4776,39.894,127.49,1010.587,420.0,3806.25,-1163.75,72.96,-199.12,-513.76
348402.5276,40.382,121.329,1007.232,-341.25,2458.75,-866.25,82.08,-203.68,-506.16
348402.5776,44.286,122.732,1008.757,157.5,2800.0,-341.25,82.08,-212.8,-509.2
348402.6276,46.787,125.965,1007.903,-358.75,3333.75,-323.75,71.44,-211.28,-490.96
348402.6776,40.565,122.671,1008.513,-280.0,3141.25,-918.75,74.48,-212.8,-510.72
348402.7276,43.127,121.085,1008.391,-507.5,2800.0,-840.0,68.4,-200.64,-513.76
348402.7776,43.92,118.523,1008.879,-192.5,3150.0,-288.75,88.16,-221.92,-497.04
348402.8276,43.859,120.414,1011.868,-516.25,2738.75,-857.5,71.44,-209.76,-504.64
348402.8776,46.665,118.218,1008.147,-87.5,2642.5,-665.0,79.04,-197.6,-512.24
348402.9276,46.726,111.996,1006.744,-253.75,2940.0,-122.5,80.56,-220.4,-518.32
348402.9776,50.386,118.767,1007.659,857.5,2975.0,-603.75,86.64,-228.0,-504.64
348403.0276,44.835,109.373,1017.114,-1041.25,3456.25,-971.25,74.48,-211.28,-503.12
348403.0776,40.26,102.724,1007.72,1312.5,3333.75,-1303.75,71.44,-202.16,-504.64
348403.1276,23.241,125.355,1006.439,1312.5,1400.0,-2248.75,80.56,-208.24,-503.12
348403.1776,54.839,134.261,1002.169,665.0,1032.5,-245.0,85.12,-223.44,-489.44
348403.2276,65.392,133.651,1006.439,-560.0,2047.5,1417.5,77.52,-208.24,-512.24
348403.2776,54.534,125.233,1009.001,-236.25,4042.5,-577.5,65.36,-205.2,-509.2
348403.3276,50.63,123.708,1007.415,-1338.75,3526.25,-2301.25,79.04,-212.8,-506.16
348403.3776,54.046,114.192,1008.513,-288.75,5092.5,-2808.75,83.6,-206.72,-490.96
348403.4276,32.757,119.133,1012.966,490.0,5355.0,-2703.75,76.0,-205.2,-506.16
348403.4776,20.862,130.357,1010.404,332.5,4208.75,-2362.5,66.88,-211.28,-513.76
348403.5276,27.206,126.087,1006.378,-498.75,2668.75,-420.0,86.64,-208.24,-494.0
348403.5776,29.28,123.83,1005.28,-638.75,1863.75,735.0,76.0,-208.24,-507.68
348403.6278,44.53,115.107,1009.855,-1225.0,1548.75,542.5,77.52,-209.76,-503.12
348403.6776,54.107,109.8,1009.733,-472.5,1916.25,-630.0,82.08,-215.84,-516.8
348403.7277,57.279,109.19,1010.221,577.5,2887.5,-910.0,92.72,-218.88,-500.08
348403.7776,48.251,124.989,1004.548,603.75,3981.25,-1172.5,74.48,-205.2,-504.64
348403.8277,36.844,123.22,1007.049,-586.25,3762.5,-848.75,80.56,-203.68,-506.16
348403.8776,37.149,112.911,1010.77,-446.25,3290.0,-726.25,66.88,-209.76,-498.56
348403.9276,40.87,112.179,1009.855,367.5,2695.0,-717.5,72.96,-220.4,-500.08
348403.9776,34.709,114.558,1008.696,962.5,2616.25,-743.75,72.96,-206.72,-512.24
348404.0283,45.201,123.83,1009.611,350.0,2931.25,-560.0,85.12,-203.68,-525.92
348404.0776,37.637,124.318,1007.293,87.5,2528.75,-507.5,94.24,-212.8,-490.96
348404.1276,44.896,119.621,1009.672,148.75,2187.5,-735.0,68.4,-212.8,-498.56
348404.1776,50.63,119.255,1008.086,-105.0,3150.0,-140.0,88.16,-209.76,-524.4
348404.2276,39.223,119.072,1009.55,-166.25,3377.5,-612.5,66.88,-197.6,-509.2
348404.2776,40.199,118.645,1008.574,-332.5,2800.0,-866.25,82.08,-211.28,-500.08
348404.3276,40.382,116.693,1007.415,-148.75,3010.0,-551.25,66.88,-214.32,-497.04
348404.3776,38.979,116.693,1009.611,-70.0,2467.5,-665.0,71.44,-212.8,-507.68
348404.4276,45.567,117.73,1008.574,-411.25,2388.75,-533.75,86.64,-211.28,-494.0
348404.4776,44.469,113.704,1009.245,-236.25,2380.0,-385.0,91.2,-203.68,-510.72
348404.5276,51.972,117.608,1008.025,848.75,2765.0,-673.75,68.4,-209.76,-513.76
348404.5776,52.094,122.244,1007.964,787.5,3631.25,-953.75,76.0,-211.28,-510.72
348404.6276,37.881,124.928,1006.683,-542.5,3080.0,-1172.5,77.52,-206.72,-494.0
348404.6776,44.835,123.22,1006.256,-980.0,3071.25,-936.25,91.2,-200.64,-495.52
348404.7276,38.613,108.824,1013.637,-577.5,2905.0,-376.25,91.2,-209.76,-509.2
348404.7776,45.018,115.168,1010.587,455.0,2502.5,-665.0,76.0,-200.64,-522.88
348404.8276,47.824,119.621,1006.378,831.25,3010.0,-708.75,85.12,-218.88,-501.6
348404.8776,38.308,118.34,1009.062,-306.25,2870.0,-1023.75,65.36,-202.16,-489.44
348404.9276,44.53,115.839,1008.391,113.75,2170.0,-743.75,83.6,-208.24,-501.6
348404.9776,50.02,121.268,1006.317,131.25,3141.25,-105.0,76.0,-214.32,-507.68
348405.0276,43.676,118.218,1009.55,-665.0,3517.5,-927.5,79.04,-203.68,-506.16
348405.0776,38.369,111.447,1010.587,-201.25,3123.75,-1531.25,71.44,-209.76,-509.2
348405.1276,43.371,113.399,1011.014,183.75,2913.75,-980.0,79.04,-200.64,-498.56
348405.1776,41.541,116.022,1009.184,140.0,2931.25,-682.5,88.16,-206.72,-504.64
348405.2276,42.761,120.109,1007.842,17.5,2826.25,-927.5,71.44,-214.32,-509.2
348405.2776,45.445,115.351,1006.744,-96.25,2555.0,-1058.75,79.04,-206.72,-515.28
348405.3276,45.689,116.754,1011.197,17.5,2887.5,-805.0,85.12,-197.6,-509.2
348405.3776,46.482,119.194,1008.94,673.75,2861.25,-761.25,80.56,-221.92,-494.0
348405.4276,43.31,124.623,1009.55,-656.25,3368.75,-980.0,76.0,-209.76,-504.64
348405.4776,42.822,114.985,1009.672,-665.0,3185.0,-1076.25,80.56,-212.8,-506.16
348405.5276,41.358,112.057,1008.513,166.25,3097.5,-533.75,85.12,-206.72,-501.6
348405.5776,45.018,116.754,1009.733,481.25,3045.0,-507.5,86.64,-218.88,-501.6
348405.6276,48.617,119.072,1006.561,770.0,3080.0,-1093.75,79.04,-199.12,-512.24
348405.6776,41.114,119.987,1009.916,245.0,3710.0,-1146.25,79.04,-212.8,-515.28
348405.7276,39.65,119.682,1006.012,157.5,2467.5,-1032.5,76.0,-208.24,-498.56
348405.7776,46.421,118.767,1007.598,175.0,2931.25,-385.0,80.56,-202.16,-513.76
348405.8276,48.129,123.403,1008.33,-315.0,3491.25,-542.5,92.72,-209.76,-512.24
348405.8776,38.735,118.157,1010.587,-516.25,3018.75,-1032.5,86.64,-214.32,-512.24
348405.9276,38.247,114.253,1009.855,-420.0,2703.75,-822.5,77.52,-203.68,-492.48
348405.9776,46.848,114.802,1010.343,-271.25,2791.25,-70.0,77.52,-206.72,-504.64
348406.0276,42.029,113.46,1007.842,-140.0,2800.0,-630.0,74.48,-200.64,-503.12
348406.0776,44.042,114.131,1011.624,-148.75,2931.25,-1041.25,82.08,-205.2,-506.16
348406.1276,43.432,116.083,1009.062,271.25,2870.0,-1058.75,69.92,-208.24,-503.12
348406.1776,44.225,115.656,1006.622,542.5,2721.25,-568.75,82.08,-206.72,-506.16
348406.2276,47.763,121.634,1008.269,498.75,3535.0,-385.0,79.04,-212.8,-500.08
348406.2776,39.467,120.78,1010.465,-717.5,3281.25,-682.5,77.52,-211.28,-506.16
348406.3276,45.079,111.935,1009.001,-376.25,2765.0,-1006.25,86.64,-202.16,-515.28
348406.3776,38.613,109.739,1010.587,813.75,2931.25,-271.25,71.44,-203.68,-498.56
348406.4276,41.785,117.852,1010.953,595.0,2835.0,-516.25,83.6,-214.32,-507.68
348406.4776,51.301,123.159,1007.232,638.75,3097.5,-682.5,74.48,-200.64,-501.6
348406.5276,40.26,124.684,1007.354,-288.75,3395.0,-875.0,76.0,-209.76,-507.68
348406.5776,43.432,115.839,1008.452,-560.0,2327.5,-910.0,92.72,-209.76,-509.2
348406.6276,47.031,115.168,1010.282,210.0,2861.25,-78.75,79.04,-212.8,-489.44
348406.6776,45.018,117.059,1010.892,-140.0,3097.5,-358.75,71.44,-212.8,-512.24
348406.7276,45.567,117.059,1007.842,26.25,2835.0,-1146.25,79.04,-199.12,-501.6
348406.7776,44.896,120.231,1008.513,-315.0,2948.75,-656.25,71.44,-214.32,-490.96
348406.8276,43.676,114.131,1007.171,-455.0,2992.5,-350.0,68.4,-202.16,-522.88
348406.8776,44.286,119.255,1007.293,-446.25,2765.0,-498.75,69.92,-209.76,-484.88
348406.9276,47.58,114.924,1008.94,-323.75,2878.75,-315.0,85.12,-202.16,-504.64
348406.9778,42.273,110.593,1011.746,-43.75,2878.75,-1111.25,68.4,-208.24,-504.64
348407.0276,51.545,116.51,1008.452,918.75,2983.75,-1347.5,85.12,-214.32,-515.28
348407.0777,41.724,122.061,1009.184,-402.5,3570.0,-1128.75,85.12,-208.24,-498.56
348407.1276,40.26,111.752,1006.378,-857.5,2922.5,-1093.75,92.72,-202.16,-507.68
348407.1777,40.809,108.824,1010.77,-140.0,2668.75,-647.5,88.16,-203.68,-512.24
348407.2276,43.371,115.168,1009.855,26.25,2616.25,-385.0,69.92,-209.76,-512.24
348407.2776,44.957,114.68,1009.123,43.75,2581.25,-437.5,85.12,-209.76,-492.48
348407.3276,43.249,120.353,1010.404,43.75,2870.0,-840.0,80.56,-202.16,-501.6
348407.3776,40.443,117.242,1010.587,-367.5,2213.75,-752.5,77.52,-211.28,-503.12
348407.4276,48.922,114.131,1008.635,87.5,2721.25,-341.25,72.96,-215.84,-518.32
348407.4776,44.896,117.547,1009.733,218.75,3185.0,-621.25,82.08,-218.88,-500.08
348407.5276,43.798,118.95,1007.232,-420.0,3097.5,-1417.5,62.32,-206.72,-497.04
348407.5776,42.883,116.083,1008.635,-805.0,3158.75,-1023.75,71.44,-202.16,-512.24
348407.6276,40.687,114.314,1009.062,-621.25,3421.25,-498.75,76.0,-212.8,-500.08
348407.6776,43.127,115.29,1010.77,-201.25,2493.75,-507.5,88.16,-206.72,-503.12
348407.7276,47.275,108.397,1006.744,52.5,2668.75,-525.0,74.48,-208.24,-524.4
348407.7776,48.8,109.617,1009.489,498.75,2598.75,-376.25,69.92,-203.68,-512.24
348407.8276,47.824,118.096,1005.341,822.5,3088.75,-568.75,88.16,-215.84,-494.0
348407.8776,40.992,119.682,1009.977,-857.5,2817.5,-647.5,68.4,-205.2,-494.0
348407.9276,47.092,106.689,1008.086,-1198.75,2870.0,-280.0,74.48,-211.28,-512.24
348407.9776,46.36,100.284,1012.722,323.75,3062.5,-262.5,92.72,-203.68,-507.68
348408.0276,46.36,111.813,1008.33,945.0,2931.25,-1058.75,83.6,-208.24,-513.76
348408.0776,48.19,122.976,1009.062,936.25,2905.0,-1286.25,76.0,-200.64,-518.32
348408.1276,39.772,122.488,1009.245,183.75,3272.5,-901.25,74.48,-200.64,-503.12
348408.1776,45.201,118.95,1007.842,35.0,1496.25,-1793.75,82.08,-208.24,-497.04
348408.2276,59.475,114.68,1009.306,-262.5,3202.5,-271.25,76.0,-205.2,-498.56
348408.2776,49.227,113.887,1011.38,-393.75,3832.5,-507.5,69.92,-205.2,-507.68
348408.3276,44.835,111.325,1009.611,-192.5,2686.25,-1785.0,85.12,-206.72,-507.68
348408.3776,45.628,116.449,1006.5,166.25,2738.75,-822.5,69.92,-209.76,-498.56
348408.4276,43.859,116.327,1010.099,-227.5,2992.5,0.0,72.96,-217.36,-513.76
348408.4776,43.188,111.691,1012.417,-507.5,2187.5,-770.0,77.52,-208.24,-494.0
348408.5276,54.046,110.471,1008.757,-113.75,2633.75,-761.25,76.0,-208.24,-510.72
348408.5776,47.702,109.8,1010.16,411.25,3123.75,-551.25,71.44,-214.32,-500.08
348408.6276,46.238,118.401,1008.33,533.75,3473.75,-1260.0,62.32,-208.24,-512.24
348408.6776,47.153,114.009,1009.367,-402.5,2511.25,-892.5,80.56,-206.72,-507.68
348408.7276,49.288,110.41,1007.781,-551.25,2966.25,-498.75,94.24,-200.64,-490.96
348408.7776,47.946,109.129,1012.234,490.0,2633.75,-638.75,71.44,-208.24,-494.0
348408.8276,52.155,114.009,1011.929,411.25,2922.5,-988.75,77.52,-203.68,-516.8
348408.8776,50.447,114.802,1008.025,236.25,3937.5,-1163.75,69.92,-202.16,-512.24
348408.9276,36.478,116.449,1010.77,-192.5,2607.5,-1286.25,72.96,-202.16,-494.0
348408.9776,47.092,114.07,1008.33,17.5,2528.75,-1146.25,68.4,-202.16,-512.24
348409.0276,51.789,116.815,1009.55,52.5,3088.75,-148.75,72.96,-203.68,-504.64
348409.0776,45.872,111.691,1008.086,-437.5,3053.75,-1268.75,76.0,-206.72,-501.6
348409.1276,46.36,111.203,1009.855,-315.0,2738.75,-1470.0,72.96,-214.32,-507.68
348409.1776,47.824,112.24,1007.964,-96.25,3097.5,-647.5,88.16,-212.8,-513.76
348409.2276,42.029,113.033,1010.343,-210.0,2800.0,-647.5,79.04,-209.76,-509.2
348409.2776,49.776,110.776,1010.953,-113.75,2800.0,-892.5,74.48,-206.72,-509.2
348409.3276,51.118,111.996,1011.502,700.0,3167.5,-638.75,76.0,-211.28,-507.68
348409.3776,48.861,115.046,1009.794,953.75,3500.0,-1242.5,69.92,-211.28,-494.0
348409.4276,42.334,115.107,1007.964,-96.25,2800.0,-1216.25,82.08,-205.2,-501.6
348409.4776,48.312,112.667,1006.622,-288.75,2905.0,-603.75,69.92,-214.32,-510.72
348409.5276,43.859,108.824,1011.563,201.25,2808.75,-87.5,79.04,-206.72,-515.28
348409.5776,44.896,116.388,1008.879,761.25,2581.25,-691.25,72.96,-209.76,-504.64
348409.6276,51.423,120.048,1006.561,735.0,3036.25,-778.75,77.52,-202.16,-486.4
348409.6776,40.138,117.669,1008.147,-271.25,3237.5,-1085.0,83.6,-203.68,-509.2
348409.7276,45.628,114.68,1011.807,-507.5,2485.0,-936.25,66.88,-205.2,-512.24
348409.7776,50.508,111.02,1006.378,350.0,3010.0,-166.25,85.12,-208.24,-515.28
348409.8276,43.615,115.168,1008.452,-297.5,3281.25,-1032.5,77.52,-197.6,-503.12
348409.8776,39.955,112.545,1010.526,-507.5,2922.5,-1522.5,72.96,-209.76,-497.04
348409.9276,43.676,113.582,1008.33,157.5,2721.25,-551.25,76.0,-205.2,-506.16
348409.9776,46.299,114.619,1008.635,428.75,2721.25,-131.25,77.52,-206.72,-495.52
348410.0276,50.386,114.131,1008.208,-288.75,2677.5,-367.5,80.56,-214.32,-509.2
348410.0776,46.787,113.643,1010.221,-175.0,2870.0,-586.25,82.08,-205.2,-504.64
348410.1276,46.36,112.545,1010.038,175.0,2940.0,-1251.25,69.92,-208.24,-486.4
348410.1776,45.262,116.449,1008.513,-822.5,3465.0,-1942.5,72.96,-199.12,-498.56
348410.2276,45.079,104.005,1008.757,-148.75,2633.75,-1636.25,77.52,-209.76,-509.2
348410.2776,50.203,107.055,1007.659,953.75,3543.75,-105.0,74.48,-215.84,-506.16
348410.3276,48.678,117.303,1009.001,1155.0,3316.25,0.0,65.36,-214.32,-512.24
348410.3776,46.421,117.852,1009.794,-122.5,3088.75,-848.75,65.36,-209.76,-495.52
348410.4278,43.92,119.56,1011.136,-306.25,3290.0,-551.25,83.6,-217.36,-504.64
348410.4776,38.918,116.693,1009.245,-840.0,2485.0,-498.75,66.88,-212.8,-522.88
348410.5277,49.532,110.105,1009.611,-227.5,2590.0,-778.75,79.04,-205.2,-504.64
348410.5776,48.007,110.837,1012.173,236.25,3010.0,-376.25,82.08,-202.16,-500.08
348410.6276,45.018,117.425,1007.964,-358.75,3403.75,-927.5,74.48,-209.76,-504.64
348410.6776,43.432,114.131,1009.428,-866.25,3377.5,-1146.25,77.52,-215.84,-500.08
348410.7276,44.652,111.203,1008.696,-805.0,3123.75,-953.75,92.72,-203.68,-509.2
348410.7776,47.153,107.787,1008.208,-813.75,2870.0,-455.0,77.52,-205.2,-504.64
348410.8276,45.75,107.177,1009.794,-350.0,3167.5,-883.75,62.32,-211.28,-498.56
348410.8776,44.469,108.397,1012.417,638.75,2861.25,-1067.5,74.48,-211.28,-509.2
348410.9276,42.151,120.78,1008.452,-140.0,3176.25,-787.5,86.64,-226.48,-495.52
348410.9776,42.761,111.02,1005.646,-726.25,2773.75,-551.25,74.48,-205.2,-509.2
348411.0276,43.005,109.312,1008.757,26.25,2721.25,-621.25,71.44,-197.6,-522.88
348411.0776,45.201,110.593,1010.831,332.5,2563.75,-411.25,86.64,-206.72,-512.24
348411.1276,44.347,110.044,1008.086,43.75,2843.75,-516.25,74.48,-208.24,-501.6
348411.1776,41.968,116.876,1010.892,-840.0,3246.25,-892.5,79.04,-206.72,-507.68
348411.2276,37.942,107.726,1014.247,-796.25,2633.75,-1111.25,69.92,-208.24,-512.24
348411.2776,53.009,109.129,1008.94,621.25,2826.25,-437.5,68.4,-211.28,-506.16
348411.3276,49.837,113.643,1009.733,402.5,3386.25,-35.0,79.04,-209.76,-507.68
348411.3776,44.225,117.181,1011.014,-61.25,2782.5,-1338.75,79.04,-206.72,-507.68
348411.4276,47.641,114.375,1008.94,-980.0,3167.5,-1155.0,94.24,-203.68,-509.2
348411.4776,44.225,105.774,1009.733,-848.75,2913.75,-665.0,83.6,-208.24,-503.12
348411.5276,50.203,107.665,1010.709,-227.5,2861.25,-901.25,91.2,-209.76,-484.88
348411.5776,47.214,105.286,1010.16,0.0,2870.0,-866.25,74.48,-205.2,-503.12
348411.6276,39.894,112.484,1009.123,638.75,3141.25,-953.75,72.96,-200.64,-507.68
348411.6776,39.894,120.109,1009.245,-271.25,2808.75,-796.25,77.52,-199.12,-487.92
348411.7276,46.787,104.92,1011.258,-840.0,2143.75,0.0,66.88,-203.68,-495.52
348411.7776,47.58,104.31,1009.489,-210.0,2397.5,-297.5,85.12,-202.16,-519.84
348411.8276,48.373,106.14,1008.635,26.25,2826.25,-848.75,92.72,-212.8,-503.12
348411.8776,51.85,104.798,1009.245,350.0,2677.5,-787.5,63.84,-206.72,-490.96
348411.9276,46.482,109.617,1010.465,87.5,3386.25,-691.25,71.44,-206.72,-503.12
348411.9776,43.859,108.336,1013.149,-350.0,2380.0,-953.75,82.08,-202.16,-513.76
348412.0276,52.033,110.898,1008.94,245.0,3001.25,-1041.25,92.72,-209.76,-506.16
348412.0776,50.203,113.338,1007.842,70.0,3281.25,-638.75,80.56,-205.2,-501.6
348412.1276,43.981,109.739,1010.221,-437.5,2966.25,-857.5,77.52,-200.64,-487.92
348412.1776,45.933,108.763,1009.55,-455.0,2520.0,-621.25,60.8,-209.76,-515.28
348412.2276,46.909,106.079,1008.147,-560.0,2686.25,-122.5,82.08,-208.24,-498.56
348412.2776,45.933,105.408,1012.051,-43.75,2581.25,-708.75,76.0,-208.24,-495.52
348412.3276,53.68,105.896,1008.696,297.5,2380.0,-472.5,74.48,-203.68,-516.8
348412.3776,50.874,111.203,1009.672,472.5,3762.5,-831.25,77.52,-206.72,-501.6
348412.4276,42.212,111.935,1010.465,-866.25,3281.25,-1076.25,89.68,-209.76,-495.52
348412.4776,50.935,99.308,1008.818,-551.25,2922.5,-752.5,76.0,-197.6,-504.64
348412.5276,46.055,97.966,1011.807,253.75,2922.5,-297.5,80.56,-199.12,-509.2
348412.5776,47.092,103.334,1008.391,437.5,2931.25,-656.25,88.16,-197.6,-504.64
348412.6276,54.534,111.02,1008.513,1190.0,3193.75,-1111.25,71.44,-208.24,-495.52
348412.6776,47.092,113.582,1008.696,323.75,3272.5,-1120.0,80.56,-205.2,-509.2
348412.7276,45.384,111.386,1007.964,-245.0,2511.25,-1137.5,69.92,-212.8,-515.28
348412.7776,48.19,109.617,1008.33,52.5,2913.75,-472.5,77.52,-209.76,-503.12
348412.8276,50.081,109.922,1010.099,-350.0,3211.25,-218.75,79.04,-205.2,-497.04
348412.8776,42.273,106.811,1011.868,-603.75,3088.75,-1023.75,66.88,-200.64,-487.92
348412.9276,45.14,104.188,1009.428,-236.25,2668.75,-936.25,83.6,-208.24,-490.96
348412.9776,47.153,105.774,1010.709,-315.0,2852.5,-148.75,71.44,-202.16,-509.2
348413.0276,45.384,104.676,1007.598,-43.75,2423.75,-323.75,65.36,-206.72,-506.16
348413.0776,51.911,102.724,1007.232,140.0,2931.25,-577.5,80.56,-200.64,-516.8
348413.1276,49.593,109.129,1010.831,656.25,3657.5,-1260.0,83.6,-209.76,-489.44
348413.1776,41.724,106.262,1010.343,-78.75,2817.5,-1426.25,86.64,-211.28,-501.6
348413.2276,51.789,102.175,1007.964,-411.25,2677.5,-673.75,66.88,-208.24,-515.28
348413.2776,46.299,103.395,1009.062,-96.25,2870.0,-393.75,80.56,-203.68,-510.72
348413.3276,44.774,97.6,1013.637,-253.75,2467.5,-1610.0,80.56,-199.12,-506.16
348413.3776,58.194,113.338,1006.805,1802.5,3202.5,-1268.75,65.36,-206.72,-510.72
348413.4276,48.19,118.828,1007.781,568.75,3701.25,-805.0,83.6,-200.64,-512.24
348413.4776,45.079,117.791,1007.415,-455.0,2441.25,-1583.75,80.56,-203.68,-503.12
348413.5276,51.789,106.445,1009.245,-455.0,2887.5,-586.25,68.4,-199.12,-507.68
348413.5776,49.105,108.702,1011.868,-87.5,2817.5,-61.25,80.56,-226.48,-507.68
348413.6276,48.922,108.031,1007.659,-332.5,2747.5,-953.75,74.48,-208.24,-504.64
348413.6776,45.689,107.909,1008.391,-367.5,2730.0,-927.5,82.08,-215.84,-494.0
348413.7276,47.946,106.14,1010.587,-472.5,2572.5,-332.5,80.56,-203.68,-494.0
348413.7777,51.484,100.833,1011.868,-175.0,2668.75,-131.25,77.52,-199.12,-506.16
348413.8276,58.438,103.029,1008.33,691.25,2913.75,-490.0,83.6,-200.64,-506.16
348413.8778,54.046,115.534,1006.073,647.5,3710.0,-1303.75,76.0,-217.36,-498.56
348413.9276,44.286,112.301,1011.38,-796.25,3351.25,-1155.0,82.08,-223.44,-510.72
348413.9776,48.19,102.846,1007.72,-411.25,3325.0,-367.5,77.52,-205.2,-501.6
348414.0276,43.798,98.576,1010.892,78.75,3395.0,-87.5,85.12,-200.64,-515.28
348414.0776,42.639,109.068,1012.356,840.0,2983.75,-376.25,74.48,-215.84,-512.24
348414.1276,49.105,114.253,1007.842,918.75,3290.0,490.0,80.56,-200.64,-522.88
348414.1776,42.944,117.059,1008.757,87.5,2808.75,446.25,71.44,-203.68,-504.64
348414.2276,50.02,113.094,1007.476,-481.25,2047.5,-245.0,72.96,-221.92,-495.52
348414.2776,53.07,110.959,1007.049,-927.5,2537.5,-446.25,69.92,-215.84,-504.64
348414.3276,53.802,106.628,1007.232,-848.75,3106.25,-708.75,71.44,-196.08,-512.24
348414.3776,52.033,101.748,1010.587,-1207.5,3193.75,-1225.0,77.52,-214.32,-504.64
348414.4276,50.081,99.064,1006.988,341.25,3386.25,-1067.5,80.56,-205.2,-507.68
348414.4776,45.14,100.772,1010.892,166.25,3421.25,-481.25,71.44,-202.16,-507.68
348414.5276,49.227,104.188,1009.977,455.0,3255.0,-682.5,88.16,-205.2,-501.6
348414.5776,41.114,111.02,1012.478,1557.5,2598.75,-927.5,88.16,-203.68,-500.08
348414.6276,50.569,114.985,1012.295,1540.0,2520.0,-717.5,62.32,-200.64,-500.08
348414.6776,45.567,112.606,1010.16,-367.5,2598.75,52.5,80.56,-215.84,-518.32
348414.7276,48.739,106.201,1009.733,-52.5,2178.75,-105.0,76.0,-200.64,-512.24
348414.7776,57.218,102.175,1010.038,962.5,2528.75,358.75,83.6,-209.76,-503.12
348414.8276,50.569,115.351,1005.89,1365.0,2730.0,-743.75,77.52,-211.28,-498.56
348414.8776,53.985,121.268,1007.964,665.0,3386.25,-1487.5,68.4,-215.84,-501.6
348414.9276,46.177,120.292,1007.476,-945.0,2712.5,-665.0,88.16,-206.72,-492.48
348414.9776,52.948,109.251,1010.587,-1277.5,2835.0,-227.5,68.4,-205.2,-510.72
348415.0276,53.253,103.883,1011.014,-770.0,3097.5,-78.75,74.48,-199.12,-507.68
348415.0776,47.58,103.212,1013.576,-105.0,2887.5,-1093.75,83.6,-200.64,-494.0
348415.1276,46.97,106.689,1009.672,420.0,2800.0,-1400.0,65.36,-194.56,-504.64
