TimeStamp,ax,ay,az,gx,gy,gz,mx,my,mz
348446.4276,82.289,170.373,998.57,-1618.75,-568.75,1391.25,60.8,-243.2,-490.96
348446.4776,103.883,155.672,999.729,-1443.75,-201.25,3115.0,59.28,-228.0,-490.96
348446.5276,96.38,168.055,993.263,-350.0,1767.5,1968.75,72.96,-228.0,-498.56
348446.5776,104.981,172.081,994.971,-87.5,525.0,1111.25,56.24,-237.12,-494.0
348446.6276,115.046,168.482,991.799,-796.25,2633.75,-297.5,42.56,-241.68,-498.56
348446.6776,104.859,169.824,991.921,-1785.0,4445.0,-271.25,41.04,-235.6,-501.6
348446.7276,84.607,164.09,1003.755,-1618.75,3963.75,-1417.5,59.28,-238.64,-492.48
348446.7776,93.086,167.323,999.79,-962.5,3473.75,-3027.5,51.68,-240.16,-492.48
348446.8276,85.278,168.665,996.557,315.0,2992.5,-3421.25,47.12,-231.04,-497.04
348446.8776,87.047,175.985,994.3,-1496.25,2467.5,-1785.0,60.8,-232.56,-503.12
348446.9276,86.742,159.515,995.764,-1706.25,2213.75,-910.0,53.2,-237.12,-489.44
348446.9776,92.659,159.393,998.631,-1382.5,1277.5,-673.75,50.16,-234.08,-489.44
348447.0276,112.24,149.816,995.947,-2073.75,2406.25,1925.0,50.16,-226.48,-490.96
348447.0776,112.179,150.182,997.655,-840.0,4086.25,603.75,57.76,-240.16,-501.6
348447.1276,95.099,153.537,998.326,-1172.5,4777.5,-1872.5,57.76,-237.12,-484.88
348447.1776,86.498,151.097,999.912,-980.0,3333.75,-3298.75,48.64,-237.12,-507.68
348447.2276,101.931,158.417,1000.705,-691.25,2030.0,-1680.0,57.76,-234.08,-498.56
348447.2778,96.197,150.304,1000.522,-673.75,3500.0,761.25,62.32,-237.12,-509.2
348447.3276,91.683,150.792,1004.975,682.5,3316.25,-813.75,44.08,-252.32,-503.12
348447.3777,99.613,162.443,996.923,1636.25,2397.5,-1793.75,53.2,-243.2,-498.56
348447.4276,106.994,167.75,996.374,988.75,3430.0,-997.5,38.0,-234.08,-480.32
348447.4776,84.058,159.515,998.204,-568.75,3491.25,-1102.5,63.84,-240.16,-504.64
348447.5276,94.062,158.112,996.008,-1443.75,2738.75,-1277.5,44.08,-240.16,-504.64
348447.5776,99.369,152.988,998.448,-1198.75,2896.25,-131.25,71.44,-241.68,-492.48
348447.6276,96.563,151.89,1002.718,-262.5,3613.75,-691.25,41.04,-234.08,-480.32
348447.6776,89.853,153.049,1002.291,-525.0,3718.75,-1680.0,60.8,-232.56,-478.8
348447.7276,97.6,153.293,1000.461,-87.5,2773.75,-1820.0,63.84,-235.6,-501.6
348447.7776,102.846,158.722,997.045,-315.0,3762.5,-2362.5,45.6,-232.56,-497.04
348447.8276,97.844,157.746,997.167,-910.0,4165.0,-2625.0,53.2,-231.04,-500.08
348447.8776,84.18,148.047,1002.535,-1610.0,3990.0,-1102.5,51.68,-237.12,-503.12
348447.9276,82.045,146.278,1004.121,-1216.25,3386.25,-140.0,60.8,-237.12,-478.8
348447.9776,92.72,148.718,1000.827,-43.75,2625.0,-1382.5,50.16,-249.28,-497.04
348448.0276,94.001,156.16,997.533,-796.25,3290.0,-1330.0,53.2,-231.04,-507.68
348448.0776,88.755,148.291,999.18,-1067.5,3465.0,-1058.75,65.36,-238.64,-494.0
348448.1276,87.23,140.483,1003.206,-822.5,3465.0,-1618.75,57.76,-232.56,-498.56
348448.1776,87.291,141.764,1000.522,-105.0,3255.0,-1330.0,47.12,-229.52,-497.04
348448.2276,94.916,150.548,999.241,787.5,3351.25,-1277.5,50.16,-237.12,-504.64
348448.2776,85.4,152.988,1001.132,245.0,4130.0,-1321.25,62.32,-229.52,-486.4
348448.3276,80.52,154.391,1000.766,-516.25,2388.75,-1680.0,56.24,-237.12,-494.0
348448.3776,84.607,148.535,1000.888,-656.25,2362.5,-481.25,45.6,-237.12,-518.32
348448.4276,89.426,148.413,1000.034,-787.5,2546.25,-131.25,47.12,-234.08,-487.92
348448.4776,86.193,142.557,1003.023,-1102.5,2660.0,-1242.5,56.24,-234.08,-501.6
348448.5276,86.925,142.74,1004.365,-1242.5,2047.5,-1146.25,47.12,-226.48,-501.6
348448.5776,95.343,140.3,1000.888,778.75,3263.75,-1163.75,62.32,-231.04,-480.32
348448.6276,83.631,149.511,1000.888,-393.75,3080.0,-1400.0,59.28,-234.08,-489.44
348448.6776,85.827,145.79,999.729,-577.5,2485.0,-1242.5,50.16,-240.16,-515.28
348448.7276,86.742,145.18,1001.498,-603.75,2213.75,35.0,65.36,-237.12,-503.12
348448.7776,90.28,146.522,1001.315,-927.5,2537.5,682.5,65.36,-235.6,-495.52
348448.8276,98.027,142.618,1004.243,52.5,3517.5,148.75,62.32,-238.64,-507.68
348448.8776,85.583,146.034,1003.999,-437.5,3185.0,-428.75,57.76,-240.16,-512.24
348448.9276,89.182,139.507,1002.84,-551.25,2861.25,-857.5,65.36,-237.12,-494.0
348448.9776,94.428,138.348,1001.498,367.5,3228.75,-236.25,50.16,-238.64,-497.04
348449.0276,95.648,143.96,1001.254,43.75,3500.0,-236.25,53.2,-235.6,-501.6
348449.0776,83.875,135.847,1003.45,-157.5,3342.5,-1925.0,60.8,-224.96,-501.6
348449.1276,88.45,137.616,1000.522,-1907.5,2861.25,-1181.25,59.28,-226.48,-484.88
348449.1776,91.5,130.296,1008.452,-936.25,2642.5,-1811.25,57.76,-232.56,-498.56
348449.2276,89.609,129.259,996.679,1382.5,3578.75,-2065.0,56.24,-228.0,-484.88
348449.2776,84.79,145.058,994.849,1461.25,4217.5,-1452.5,63.84,-228.0,-503.12
348449.3276,76.189,141.093,1001.986,-796.25,3788.75,-1461.25,50.16,-237.12,-507.68
348449.3776,84.485,143.35,1007.781,971.25,3158.75,-1907.5,65.36,-229.52,-490.96
348449.4276,89.67,156.648,1006.439,0.0,3850.0,-1085.0,53.2,-231.04,-498.56
348449.4776,74.969,149.389,1004.06,140.0,3543.75,455.0,74.48,-232.56,-490.96
348449.5276,81.862,149.755,1003.755,61.25,2756.25,848.75,50.16,-234.08,-494.0
348449.5776,84.607,152.988,1000.461,-481.25,2913.75,910.0,62.32,-237.12,-497.04
348449.6276,90.28,145.607,1000.4,-463.75,3430.0,2100.0,68.4,-231.04,-498.56
348449.6776,76.555,136.884,1005.829,-1540.0,3648.75,1338.75,59.28,-231.04,-497.04
348449.7276,80.52,132.309,1000.827,-621.25,2012.5,1163.75,50.16,-229.52,-509.2
348449.7776,82.777,140.3,1000.827,-227.5,2520.0,1916.25,72.96,-231.04,-504.64
348449.8276,86.315,138.47,1004.121,-1846.25,2660.0,1268.75,68.4,-228.0,-487.92
348449.8776,78.263,129.808,1007.354,-1907.5,1575.0,-577.5,56.24,-235.6,-512.24
348449.9276,98.82,123.403,1004.121,-1373.75,2012.5,-1295.0,53.2,-228.0,-500.08
348449.9776,90.829,127.795,1004.792,70.0,2380.0,-700.0,62.32,-224.96,-500.08
348450.0276,101.26,130.845,1000.827,1470.0,2572.5,-385.0,51.68,-232.56,-495.52
348450.0776,79.361,146.217,1003.877,-332.5,3281.25,-717.5,63.84,-228.0,-506.16
348450.1276,91.744,136.823,1001.681,-490.0,2415.0,-918.75,69.92,-234.08,-501.6
348450.1776,88.389,133.285,1005.89,-586.25,3360.0,-1155.0,57.76,-224.96,-507.68
348450.2276,90.097,133.041,1003.145,183.75,3360.0,-840.0,56.24,-229.52,-495.52
348450.2776,86.376,132.797,1006.927,-52.5,3692.5,-726.25,51.68,-223.44,-500.08
348450.3276,77.104,129.564,999.241,210.0,3167.5,-953.75,69.92,-231.04,-483.36
348450.3776,76.982,138.104,1003.389,393.75,2012.5,-603.75,60.8,-226.48,-492.48
348450.4276,92.964,139.873,1000.278,26.25,3036.25,-367.5,45.6,-224.96,-495.52
348450.4776,77.043,135.664,1008.33,-595.0,1986.25,-455.0,71.44,-218.88,-509.2
348450.5276,92.354,133.529,1004.121,-953.75,2152.5,-612.5,66.88,-228.0,-494.0
348450.5776,90.341,129.137,1003.572,-411.25,2633.75,-166.25,60.8,-224.96,-500.08
348450.6277,85.461,127.429,1007.11,945.0,1890.0,-332.5,62.32,-229.52,-515.28
348450.6776,95.892,143.777,1006.561,288.75,3841.25,-490.0,57.76,-223.44,-487.92
348450.7277,85.339,135.115,1005.707,-525.0,2747.5,-350.0,66.88,-223.44,-500.08
348450.7776,96.197,133.407,1000.827,-26.25,3027.5,-1505.0,56.24,-224.96,-503.12
348450.8276,84.668,136.152,1002.108,-288.75,3491.25,-1181.25,60.8,-226.48,-497.04
348450.8776,84.485,133.773,1005.768,-1076.25,2957.5,-245.0,53.2,-224.96,-500.08
348450.9276,87.718,130.296,1007.842,87.5,2738.75,-8.75,45.6,-228.0,-487.92
348450.9776,90.524,134.139,1000.339,-306.25,2625.0,105.0,69.92,-224.96,-490.96
348451.0276,93.513,128.466,1001.803,122.5,3447.5,-717.5,63.84,-224.96,-490.96
348451.0776,84.424,135.359,1008.452,-481.25,3473.75,-1461.25,68.4,-229.52,-477.28
348451.1276,86.132,126.88,1006.195,-875.0,2651.25,-1531.25,47.12,-229.52,-504.64
348451.1776,88.694,121.573,1002.413,-358.75,2730.0,-315.0,59.28,-217.36,-486.4
348451.2276,87.596,128.344,1004.426,463.75,2808.75,262.5,62.32,-221.92,-498.56
348451.2776,93.33,127.734,1002.962,918.75,2913.75,-682.5,45.6,-215.84,-507.68
348451.3276,82.167,142.374,1003.755,708.75,2852.5,-1207.5,60.8,-220.4,-500.08
348451.3776,84.546,137.86,1002.962,-708.75,3010.0,-1076.25,68.4,-228.0,-490.96
348451.4276,87.657,130.967,1004.609,-253.75,2511.25,-656.25,56.24,-226.48,-497.04
348451.4776,94.428,133.834,1001.559,-166.25,3342.5,-148.75,65.36,-234.08,-513.76
348451.5276,77.409,129.503,1005.036,-26.25,3001.25,-1041.25,71.44,-226.48,-489.44
348451.5776,90.646,131.516,1000.949,-577.5,2257.5,-1006.25,54.72,-228.0,-486.4
348451.6276,92.415,128.527,1003.023,-752.5,2336.25,8.75,48.64,-235.6,-512.24
348451.6776,97.356,127.307,1003.572,1041.25,3456.25,-455.0,71.44,-212.8,-494.0
348451.7276,89.365,137.982,1000.766,-166.25,3386.25,-988.75,63.84,-229.52,-500.08
348451.7776,91.378,129.198,1001.01,-1531.25,3018.75,-507.5,53.2,-224.96,-506.16
348451.8276,87.108,124.806,1005.463,-1163.75,2808.75,-455.0,60.8,-224.96,-501.6
348451.8776,87.901,122.915,1007.537,-1006.25,2695.0,-551.25,57.76,-220.4,-503.12
348451.9276,96.075,127.124,1003.145,122.5,3928.75,-918.75,66.88,-223.44,-490.96
348451.9776,86.254,132.126,1005.158,26.25,3666.25,-1006.25,36.48,-220.4,-492.48
348452.0276,89.304,127.063,1002.901,-227.5,2905.0,-1662.5,62.32,-223.44,-498.56
348452.0776,93.879,128.649,1001.986,-140.0,3272.5,-1741.25,62.32,-215.84,-498.56
348452.1276,90.951,130.601,1005.219,-568.75,3517.5,-1645.0,59.28,-223.44,-498.56
348452.1776,82.716,130.54,1005.402,-1067.5,3447.5,-1575.0,56.24,-228.0,-506.16
348452.2276,78.69,124.318,1005.768,-1093.75,3018.75,-1478.75,57.76,-220.4,-481.84
348452.2776,87.23,124.501,1005.219,-840.0,2336.25,-831.25,66.88,-214.32,-490.96
348452.3276,91.927,120.963,1004.182,-551.25,2572.5,-525.0,51.68,-220.4,-507.68
348452.3776,85.766,127.978,1002.779,-140.0,3718.75,-1137.5,59.28,-215.84,-498.56
348452.4276,84.973,123.647,1006.622,-1531.25,2948.75,-1373.75,56.24,-229.52,-495.52
348452.4776,84.485,116.876,1003.816,-1242.5,2668.75,-1251.25,57.76,-215.84,-498.56
348452.5276,86.803,114.863,1005.829,-315.0,2765.0,-586.25,62.32,-212.8,-500.08
348452.5776,87.169,120.231,1007.659,192.5,2808.75,-472.5,62.32,-224.96,-501.6
348452.6276,86.01,128.039,1005.158,411.25,3473.75,-586.25,50.16,-218.88,-494.0
348452.6776,77.592,124.135,1003.389,0.0,2520.0,-1146.25,56.24,-221.92,-500.08
348452.7276,89.731,123.952,1005.036,-166.25,2520.0,-656.25,65.36,-221.92,-472.72
348452.7776,86.742,116.388,1006.5,-113.75,3351.25,822.5,60.8,-228.0,-495.52
348452.8276,87.169,119.133,1003.328,113.75,2948.75,-122.5,65.36,-232.56,-497.04
348452.8776,87.047,123.586,1002.169,-43.75,3036.25,-1610.0,77.52,-232.56,-512.24
348452.9276,83.631,122.61,1005.219,-700.0,2458.75,-1592.5,59.28,-226.48,-483.36
348452.9776,85.278,120.963,1005.646,-717.5,2633.75,-1513.75,53.2,-228.0,-490.96
348453.0276,88.877,112.179,1007.72,280.0,2397.5,-1041.25,59.28,-224.96,-501.6
348453.0776,88.45,121.024,1004.914,1618.75,2843.75,-1417.5,62.32,-228.0,-494.0
348453.1276,84.18,127.978,1004.853,-385.0,2397.5,-1181.25,53.2,-231.04,-484.88
348453.1776,84.79,121.329,1002.169,-463.75,2677.5,-1277.5,59.28,-215.84,-497.04
348453.2276,85.095,120.902,1007.476,-586.25,2047.5,-638.75,57.76,-215.84,-504.64
348453.2776,87.779,121.268,1007.537,-402.5,2581.25,-26.25,56.24,-229.52,-497.04
348453.3276,89.304,124.013,1008.696,-892.5,2738.75,-332.5,63.84,-231.04,-497.04
348453.3776,85.766,117.364,1006.134,-770.0,2388.75,-857.5,47.12,-215.84,-494.0
348453.4276,89.182,115.046,1005.097,-446.25,2012.5,-1076.25,53.2,-217.36,-501.6
348453.4776,93.452,116.205,1005.585,87.5,2730.0,-621.25,68.4,-209.76,-497.04
348453.5276,88.023,117.547,1006.134,-253.75,2948.75,-1093.75,53.2,-224.96,-487.92
348453.5776,86.437,117.791,1004.609,-332.5,2528.75,-1050.0,59.28,-217.36,-487.92
348453.6276,88.145,114.619,1000.705,-218.75,2660.0,-385.0,60.8,-218.88,-503.12
348453.6776,90.158,117.791,1004.365,-411.25,2668.75,-481.25,77.52,-203.68,-481.84
348453.7276,91.805,117.791,1008.696,43.75,2310.0,-525.0,53.2,-224.96,-492.48
348453.7776,95.343,112.362,1007.842,665.0,3360.0,-218.75,57.76,-218.88,-504.64
348453.8276,93.391,121.878,1006.805,770.0,3281.25,-507.5,57.76,-226.48,-495.52
348453.8776,89.304,115.839,1005.707,350.0,2100.0,-936.25,62.32,-224.96,-486.4
348453.9276,95.953,117.669,1001.01,253.75,2485.0,-761.25,44.08,-224.96,-490.96
348453.9778,93.391,119.743,1004.731,131.25,2371.25,-297.5,44.08,-224.96,-509.2
348454.0276,96.746,118.462,1008.208,-236.25,2835.0,-402.5,53.2,-224.96,-503.12
348454.0777,92.598,118.95,1006.256,-297.5,3360.0,-533.75,53.2,-223.44,-495.52
348454.1276,87.901,119.804,1006.073,-210.0,2485.0,-910.0,50.16,-224.96,-495.52
348454.1777,92.903,116.754,1004.67,-446.25,2686.25,-910.0,60.8,-215.84,-494.0
348454.2276,95.892,121.329,1004.609,-385.0,2887.5,-367.5,71.44,-221.92,-497.04
348454.2776,93.513,118.645,1003.938,-560.0,2747.5,-761.25,57.76,-218.88,-500.08
348454.3276,94.794,114.68,1005.402,-376.25,2432.5,-735.0,47.12,-224.96,-503.12
348454.3776,95.343,115.717,1005.402,-647.5,2353.75,-533.75,59.28,-226.48,-501.6
348454.4276,93.391,115.961,1005.524,-822.5,2301.25,-157.5,57.76,-208.24,-494.0
348454.4776,95.404,111.081,1005.402,-726.25,2336.25,8.75,56.24,-229.52,-494.0
348454.5276,99.308,106.994,1005.646,-280.0,2590.0,-166.25,59.28,-221.92,-518.32
348454.5776,105.835,113.033,1003.633,691.25,3071.25,-455.0,59.28,-197.6,-498.56
348454.6276,93.33,115.107,1005.768,52.5,3552.5,-980.0,48.64,-221.92,-501.6
348454.6776,88.633,113.399,1002.23,148.75,2782.5,-1583.75,51.68,-221.92,-497.04
348454.7276,98.454,116.144,1002.291,166.25,2765.0,-997.5,51.68,-224.96,-489.44
348454.7776,94.794,118.34,1005.768,-428.75,3290.0,-498.75,66.88,-217.36,-495.52
348454.8276,97.966,117.486,1008.452,-280.0,2598.75,-1111.25,56.24,-220.4,-494.0
348454.8776,94.367,112.972,1004.792,-140.0,2703.75,-953.75,53.2,-221.92,-497.04
348454.9276,93.818,110.593,1005.707,-350.0,2511.25,-997.5,51.68,-220.4,-492.48
348454.9776,95.648,115.412,1002.596,-8.75,2520.0,-376.25,53.2,-223.44,-481.84
348455.0276,96.807,117.12,1002.718,-201.25,3036.25,-507.5,59.28,-229.52,-495.52
348455.0776,94.306,115.778,1002.962,-1662.5,2388.75,-1408.75,44.08,-220.4,-510.72
348455.1276,94.184,109.983,1004.304,-761.25,2283.75,-866.25,66.88,-220.4,-498.56
348455.1776,96.685,108.58,1005.341,-603.75,2257.5,-105.0,50.16,-223.44,-498.56
348455.2276,99.674,103.029,1003.938,-498.75,2983.75,332.5,56.24,-220.4,-492.48
348455.2776,100.101,103.456,1008.086,43.75,3027.5,-192.5,59.28,-208.24,-501.6
348455.3276,106.262,114.924,1006.134,1085.0,3185.0,-1181.25,51.68,-211.28,-483.36
348455.3776,88.816,114.436,1002.291,-691.25,2817.5,-1303.75,41.04,-223.44,-489.44
348455.4276,93.879,110.349,1002.84,-1251.25,2082.5,-988.75,47.12,-205.2,-501.6
348455.4776,99.064,103.517,1009.672,-813.75,1933.75,481.25,63.84,-212.8,-487.92
348455.5276,99.308,104.432,1008.33,105.0,2310.0,245.0,74.48,-212.8,-477.28
348455.5776,106.384,114.07,1006.317,131.25,3561.25,-770.0,34.96,-215.84,-494.0
348455.6276,96.502,109.068,1003.999,-516.25,2572.5,-638.75,44.08,-214.32,-500.08
348455.6776,100.162,108.214,1005.402,-227.5,2598.75,-700.0,62.32,-217.36,-507.68
348455.7276,101.626,110.715,1006.866,-140.0,3438.75,-26.25,47.12,-223.44,-481.84
348455.7776,98.393,111.447,1004.914,26.25,3281.25,-455.0,48.64,-226.48,-489.44
348455.8276,94.611,108.519,1003.999,761.25,2555.0,-1601.25,60.8,-215.84,-490.96
348455.8776,94.123,108.946,1006.073,-183.75,1741.25,-1356.25,48.64,-217.36,-489.44
348455.9276,104.798,106.872,1005.036,-638.75,2327.5,-201.25,51.68,-218.88,-507.68
348455.9776,101.565,104.066,1007.354,350.0,2843.75,315.0,41.04,-208.24,-506.16
348456.0276,104.92,110.959,1004.243,918.75,3202.5,-323.75,53.2,-208.24,-495.52
348456.0776,96.929,112.362,1003.755,-376.25,2660.0,-367.5,51.68,-217.36,-484.88
348456.1276,98.82,109.068,1002.657,-560.0,2730.0,-358.75,41.04,-215.84,-495.52
348456.1776,96.014,105.286,1009.855,122.5,1872.5,-568.75,44.08,-209.76,-490.96
348456.2276,115.29,106.018,1007.232,2003.75,1496.25,-787.5,59.28,-229.52,-486.4
348456.2776,106.872,116.937,1007.964,997.5,2992.5,-857.5,53.2,-215.84,-503.12
348456.3276,104.615,111.447,1002.169,-227.5,2695.0,-323.75,47.12,-228.0,-498.56
348456.3776,102.419,113.887,1002.657,-166.25,2406.25,-113.75,60.8,-221.92,-490.96
348456.4276,104.981,111.935,1001.864,-420.0,2651.25,288.75,50.16,-215.84,-472.72
348456.4776,105.225,112.728,1004.487,-332.5,2870.0,-140.0,48.64,-206.72,-497.04
348456.5276,107.482,112.667,1004.548,-857.5,3053.75,-708.75,50.16,-215.84,-489.44
348456.5776,104.371,106.323,1008.635,-735.0,3517.5,-813.75,45.6,-224.96,-494.0
348456.6276,104.676,106.506,1005.646,-367.5,3080.0,-892.5,47.12,-220.4,-484.88
348456.6776,100.589,110.654,1003.084,43.75,3377.5,-962.5,50.16,-217.36,-487.92
348456.7276,99.735,103.456,1004.243,-980.0,2231.25,393.75,66.88,-215.84,-484.88
348456.7776,107.238,99.674,1005.158,-752.5,2275.0,630.0,53.2,-209.76,-487.92
348456.8276,108.214,99.125,1006.439,1058.75,2406.25,0.0,56.24,-211.28,-510.72
348456.8776,109.19,106.689,1006.683,1347.5,2441.25,-796.25,45.6,-212.8,-503.12
348456.9276,103.456,112.118,1005.951,140.0,4515.0,-1513.75,59.28,-212.8,-483.36
348456.9776,93.391,116.571,1007.293,-577.5,2738.75,-1312.5,53.2,-224.96,-486.4
348457.0276,102.602,109.434,1005.341,-533.75,2782.5,-446.25,45.6,-209.76,-498.56
348457.0776,106.323,110.166,1005.951,70.0,3141.25,787.5,62.32,-202.16,-489.44
348457.1276,100.772,112.484,1006.256,-367.5,3307.5,122.5,42.56,-220.4,-495.52
348457.1776,102.846,108.641,1004.67,-708.75,2712.5,-665.0,41.04,-202.16,-500.08
348457.2276,100.101,106.384,1004.67,-630.0,2467.5,-787.5,45.6,-215.84,-495.52
348457.2776,104.737,101.443,1006.073,-323.75,2520.0,-673.75,51.68,-220.4,-490.96
348457.3276,103.334,109.495,1004.609,61.25,3753.75,-682.5,62.32,-217.36,-481.84
348457.3776,100.223,103.517,1004.914,-901.25,2572.5,-376.25,53.2,-218.88,-504.64
348457.4278,108.397,95.77,1002.657,-446.25,2712.5,-140.0,51.68,-208.24,-497.04
348457.4776,105.225,96.319,1004.487,428.75,2887.5,-271.25,45.6,-217.36,-474.24
348457.5277,105.957,103.517,1004.243,1163.75,2598.75,-341.25,34.96,-215.84,-489.44
348457.5776,100.345,109.739,1005.402,1006.25,3946.25,-1260.0,36.48,-212.8,-503.12
348457.6278,96.319,111.081,1003.633,113.75,2730.0,-1382.5,44.08,-212.8,-497.04
348457.6776,107.116,108.702,1002.291,262.5,2668.75,-770.0,51.68,-203.68,-483.36
348457.7276,107.055,113.033,1004.914,472.5,3088.75,-210.0,50.16,-211.28,-487.92
348457.7776,99.674,109.983,1005.768,-752.5,3045.0,-428.75,53.2,-202.16,-497.04
348457.8276,103.578,104.066,1006.683,-271.25,2423.75,-962.5,53.2,-223.44,-489.44
348457.8776,104.737,104.676,1003.328,-358.75,2450.0,-586.25,65.36,-212.8,-489.44
348457.9276,111.447,103.334,1004.609,-35.0,2485.0,-323.75,56.24,-215.84,-503.12
348457.9776,115.595,106.567,1005.097,385.0,3237.5,-472.5,47.12,-217.36,-483.36
348458.0276,95.587,109.8,1004.914,-805.0,3255.0,-1015.0,50.16,-212.8,-494.0
348458.0776,106.018,98.942,1004.243,-1225.0,2800.0,-918.75,51.68,-211.28,-489.44
348458.1276,105.652,93.818,1007.171,0.0,2738.75,-936.25,44.08,-211.28,-500.08
348458.1776,104.859,97.905,1007.049,446.25,1925.0,-848.75,59.28,-211.28,-494.0
348458.2276,109.922,106.567,1006.012,1260.0,3465.0,-892.5,39.52,-215.84,-498.56
348458.2776,97.356,107.848,1002.108,26.25,2415.0,-542.5,51.68,-209.76,-489.44
348458.3276,109.495,105.164,1005.036,-148.75,2555.0,-551.25,42.56,-209.76,-484.88
348458.3776,110.654,109.068,1006.805,131.25,2695.0,-385.0,50.16,-211.28,-497.04
348458.4276,110.105,104.859,1002.779,-446.25,3850.0,-980.0,51.68,-212.8,-495.52
348458.4776,103.151,100.284,1008.635,61.25,3220.0,-1461.25,44.08,-211.28,-498.56
348458.5276,104.31,105.835,1002.291,-131.25,2695.0,-848.75,53.2,-206.72,-490.96
348458.5776,104.737,104.737,1006.256,-726.25,2371.25,-61.25,56.24,-220.4,-490.96
348458.6276,108.031,101.687,1007.11,113.75,2721.25,26.25,50.16,-208.24,-492.48
348458.6776,103.639,108.763,1005.097,-35.0,3316.25,-192.5,47.12,-202.16,-486.4
348458.7276,104.859,100.772,1005.585,-350.0,2520.0,-306.25,71.44,-224.96,-481.84
348458.7776,105.347,97.234,1006.744,-673.75,3123.75,-691.25,41.04,-212.8,-498.56
348458.8276,107.421,99.186,1005.219,-35.0,3430.0,-717.5,47.12,-217.36,-489.44
348458.8776,102.968,101.138,1006.317,341.25,2808.75,-1120.0,62.32,-220.4,-490.96
348458.9276,103.761,113.948,1003.694,376.25,3482.5,-743.75,60.8,-208.24,-477.28
348458.9776,100.528,104.737,1003.694,-481.25,2835.0,-315.0,41.04,-202.16,-494.0
348459.0276,107.421,102.419,1004.487,-647.5,2161.25,-481.25,53.2,-211.28,-495.52
348459.0776,112.606,104.005,1006.561,-87.5,2940.0,-140.0,66.88,-221.92,-474.24
348459.1276,111.02,103.273,1003.816,-778.75,3683.75,-752.5,56.24,-212.8,-498.56
348459.1776,100.955,98.82,1007.598,26.25,2730.0,-1610.0,48.64,-199.12,-495.52
348459.2276,107.238,100.589,1002.108,96.25,2537.5,-936.25,56.24,-211.28,-487.92
348459.2776,102.785,102.419,1005.646,-490.0,3193.75,-70.0,53.2,-212.8,-481.84
348459.3276,103.578,97.539,1005.707,175.0,2310.0,-455.0,39.52,-214.32,-490.96
348459.3776,114.68,96.136,1006.683,78.75,2598.75,-253.75,45.6,-209.76,-495.52
348459.4276,108.58,106.75,1005.463,708.75,4033.75,-927.5,65.36,-215.84,-484.88
348459.4776,103.212,111.264,1003.206,-1216.25,3272.5,-1303.75,47.12,-209.76,-501.6
348459.5276,105.896,92.964,1007.598,-971.25,2975.0,-866.25,53.2,-203.68,-495.52
348459.5776,108.031,93.574,1008.086,560.0,3185.0,-358.75,50.16,-209.76,-478.8
348459.6276,102.663,102.114,1008.513,743.75,2940.0,-682.5,56.24,-209.76,-494.0
348459.6776,108.031,107.665,1004.609,236.25,3736.25,-1338.75,45.6,-215.84,-494.0
348459.7276,100.711,106.933,1005.036,-253.75,3447.5,-1452.5,53.2,-202.16,-512.24
348459.7776,99.308,102.114,1004.853,-271.25,2948.75,-1015.0,48.64,-205.2,-486.4
348459.8276,107.909,103.578,1005.402,-70.0,2896.25,-472.5,44.08,-211.28,-494.0
348459.8776,105.225,101.321,1007.659,-402.5,3062.5,-437.5,51.68,-211.28,-494.0
348459.9276,100.894,99.186,1005.036,-61.25,2791.25,-1242.5,56.24,-215.84,-490.96
348459.9776,105.164,98.332,1005.341,26.25,2791.25,-997.5,57.76,-214.32,-489.44
348460.0276,107.36,100.223,1008.208,35.0,2642.5,-105.0,54.72,-212.8,-494.0
348460.0776,104.676,102.907,1003.45,227.5,2817.5,70.0,42.56,-209.76,-500.08
348460.1276,104.676,97.173,1006.683,-315.0,2432.5,-866.25,62.32,-224.96,-490.96
348460.1776,109.556,101.26,1009.245,113.75,2922.5,-507.5,45.6,-215.84,-490.96
348460.2276,105.957,91.5,1005.402,735.0,3123.75,-157.5,42.56,-206.72,-472.72
348460.2776,106.14,107.421,1007.11,1330.0,3237.5,-875.0,59.28,-211.28,-504.64
348460.3276,104.371,105.103,1006.012,96.25,2992.5,-875.0,44.08,-206.72,-500.08
348460.3776,105.408,100.162,1006.439,43.75,2703.75,-1155.0,51.68,-223.44,-495.52
348460.4276,111.508,102.053,1005.097,8.75,2607.5,-218.75,51.68,-203.68,-489.44
348460.4776,100.467,103.09,1007.72,840.0,2765.0,-140.0,50.16,-209.76,-484.88
348460.5276,112.484,106.567,1003.084,113.75,3167.5,-761.25,47.12,-212.8,-497.04
348460.5776,104.432,106.262,1007.232,183.75,3421.25,-796.25,50.16,-206.72,-494.0
348460.6276,105.957,103.883,1003.511,166.25,2721.25,-962.5,57.76,-209.76,-498.56
348460.6776,107.238,107.238,1003.877,551.25,3001.25,-621.25,51.68,-223.44,-480.32
348460.7276,104.127,110.471,1004.792,-551.25,2931.25,-420.0,41.04,-211.28,-475.76
348460.7776,103.639,103.578,1005.707,-551.25,2922.5,-1146.25,59.28,-208.24,-497.04
348460.8276,104.798,102.175,1005.463,-638.75,2520.0,-1295.0,62.32,-211.28,-492.48
348460.8777,109.068,99.186,1005.646,-218.75,2905.0,-612.5,38.0,-208.24,-500.08
348460.9276,106.079,101.382,1007.354,122.5,3036.25,-218.75,44.08,-221.92,-506.16
348460.9777,109.739,104.615,1004.67,-17.5,2800.0,-621.25,51.68,-206.72,-474.24
348461.0276,109.556,100.04,1002.474,-70.0,2555.0,-1032.5,51.68,-214.32,-490.96
348461.0776,107.97,101.443,1009.55,-315.0,2668.75,-778.75,45.6,-220.4,-495.52
348461.1276,112.423,105.53,1004.121,962.5,3640.0,-630.0,47.12,-220.4,-503.12
348461.1776,99.552,107.604,1004.426,-542.5,3421.25,-778.75,53.2,-206.72,-486.4
348461.2276,108.031,97.783,1005.097,-638.75,2590.0,-1391.25,45.6,-220.4,-486.4
348461.2776,107.97,95.831,1006.256,227.5,3290.0,-376.25,51.68,-212.8,-498.56
348461.3276,101.687,99.674,1006.439,-236.25,2983.75,-980.0,62.32,-220.4,-490.96
348461.3776,116.632,94.367,1004.121,1268.75,2852.5,-1198.75,57.76,-206.72,-494.0
348461.4276,103.517,102.358,1006.378,953.75,3561.25,-1435.0,47.12,-212.8,-501.6
348461.4776,100.894,104.92,1003.206,787.5,2152.5,-1461.25,59.28,-215.84,-477.28
348461.5276,108.458,111.63,999.973,735.0,3123.75,-192.5,48.64,-208.24,-486.4
348461.5776,104.798,111.996,1002.84,-612.5,3141.25,87.5,53.2,-208.24,-503.12
348461.6276,106.811,104.92,1009.001,-1111.25,2712.5,-1067.5,36.48,-208.24,-484.88
348461.6776,106.384,98.393,1003.572,-603.75,3088.75,-1172.5,45.6,-218.88,-483.36
348461.7276,103.029,104.31,1006.805,-315.0,2651.25,-866.25,51.68,-203.68,-489.44
348461.7776,108.946,100.223,1003.511,-560.0,2327.5,-350.0,51.68,-202.16,-506.16
348461.8276,107.238,101.748,1005.097,-140.0,2782.5,-201.25,48.64,-208.24,-500.08
348461.8776,107.421,99.43,1002.291,-656.25,2336.25,-516.25,50.16,-211.28,-483.36
348461.9276,114.131,100.223,1005.097,-481.25,2826.25,-665.0,42.56,-208.24,-484.88
348461.9776,111.752,93.94,1008.33,192.5,2817.5,-988.75,57.76,-206.72,-489.44
348462.0276,118.462,98.454,1006.744,1111.25,3447.5,-945.0,62.32,-206.72,-495.52
348462.0776,100.589,101.809,1004.792,-595.0,3263.75,-1295.0,50.16,-214.32,-495.52
348462.1276,105.713,98.515,1003.45,-236.25,2738.75,-1443.75,36.48,-214.32,-498.56
348462.1776,104.249,99.918,1004.792,-350.0,3053.75,-131.25,54.72,-212.8,-492.48
348462.2276,101.321,103.09,1007.781,87.5,2196.25,-262.5,57.76,-220.4,-478.8
348462.2776,111.447,99.857,1003.755,376.25,2581.25,-717.5,51.68,-215.84,-500.08
348462.3276,102.602,102.602,1005.402,-708.75,3351.25,-980.0,48.64,-200.64,-484.88
348462.3776,107.177,97.539,1003.938,-533.75,2406.25,-1338.75,48.64,-211.28,-498.56
348462.4276,114.253,102.846,1001.803,-507.5,2861.25,-393.75,48.64,-209.76,-500.08
348462.4776,105.835,97.905,1006.866,-1627.5,3080.0,-743.75,39.52,-208.24,-498.56
348462.5276,104.615,91.988,1007.354,-1111.25,2843.75,-1522.5,47.12,-215.84,-494.0
348462.5776,107.543,89.67,1005.158,-840.0,2983.75,-1198.75,42.56,-203.68,-501.6
348462.6276,108.763,93.025,1006.744,-612.5,2476.25,-700.0,57.76,-211.28,-500.08
348462.6776,109.678,87.779,1006.988,-96.25,2528.75,-577.5,51.68,-215.84,-498.56
348462.7276,108.763,93.452,1005.89,61.25,2712.5,-446.25,53.2,-208.24,-498.56
348462.7776,110.898,92.293,1006.683,472.5,2686.25,-778.75,51.68,-209.76,-487.92
348462.8276,114.07,94.977,1005.097,472.5,2747.5,-1067.5,66.88,-212.8,-487.92
348462.8776,109.739,102.602,1005.646,700.0,3990.0,-1163.75,36.48,-214.32,-497.04
348462.9276,97.356,103.883,1005.524,-516.25,3272.5,-1155.0,53.2,-209.76,-492.48
348462.9776,107.665,90.951,1003.938,-883.75,2773.75,-770.0,36.48,-196.08,-477.28
348463.0276,105.469,89.975,1002.291,-551.25,2878.75,-297.5,47.12,-202.16,-487.92
348463.0776,107.543,89.975,1009.245,-113.75,2257.5,-227.5,44.08,-200.64,-489.44
348463.1276,115.595,92.964,1004.121,551.25,2747.5,-472.5,51.68,-208.24,-501.6
348463.1776,103.029,94.428,1003.755,-253.75,3150.0,-1076.25,62.32,-209.76,-490.96
348463.2276,107.055,89.182,1007.293,-35.0,2581.25,-1330.0,36.48,-202.16,-471.2
348463.2776,113.277,94.062,1004.426,612.5,3176.25,-498.75,72.96,-202.16,-494.0
348463.3276,105.591,96.075,1007.232,-525.0,3578.75,-437.5,63.84,-205.2,-495.52
348463.3776,102.602,94.123,1006.866,-332.5,2695.0,-1023.75,48.64,-202.16,-490.96
348463.4276,105.774,89.06,1007.598,-866.25,2633.75,-1085.0,51.68,-208.24,-500.08
348463.4776,106.872,86.376,1006.744,271.25,2835.0,-875.0,44.08,-215.84,-492.48
348463.5276,104.554,89.365,1005.463,691.25,2572.5,-647.5,57.76,-217.36,-478.8
348463.5776,111.691,93.086,1007.049,525.0,2231.25,-446.25,45.6,-217.36,-486.4
348463.6276,114.436,95.587,1005.463,-43.75,2240.0,-210.0,41.04,-206.72,-490.96
348463.6776,114.863,95.099,1006.378,1085.0,3377.5,-822.5,56.24,-212.8,-486.4
348463.7276,101.626,102.541,1007.537,-402.5,3333.75,-1312.5,31.92,-212.8,-471.2
348463.7776,104.493,99.796,1001.864,-787.5,2677.5,-1242.5,38.0,-221.92,-481.84
348463.8276,106.994,88.206,1006.622,-1400.0,2940.0,-140.0,62.32,-205.2,-497.04
348463.8776,111.081,88.389,1006.317,-323.75,2633.75,122.5,59.28,-205.2,-475.76
348463.9276,116.388,91.5,1006.073,315.0,2756.25,-490.0,59.28,-209.76,-480.32
348463.9776,103.456,92.354,1009.123,-157.5,3911.25,-1505.0,51.68,-205.2,-490.96
348464.0276,103.09,93.147,1004.609,-586.25,2660.0,-1627.5,59.28,-205.2,-501.6
348464.0776,112.057,92.476,1005.829,-175.0,3552.5,-490.0,56.24,-221.92,-483.36
348464.1276,103.212,93.757,1005.402,-350.0,3920.0,-175.0,42.56,-206.72,-489.44
348464.1776,103.822,90.768,1009.367,-498.75,2957.5,-1076.25,62.32,-203.68,-486.4
348464.2277,108.641,94.001,1005.707,-586.25,2747.5,-612.5,62.32,-212.8,-494.0
348464.2776,107.665,89.487,1005.036,-682.5,2913.75,-306.25,39.52,-197.6,-487.92
348464.3277,106.018,86.925,1009.001,-271.25,2520.0,-26.25,47.12,-220.4,-492.48
348464.3776,112.118,85.095,1006.805,61.25,2660.0,140.0,62.32,-209.76,-486.4
348464.4276,109.495,84.912,1004.975,-96.25,2948.75,-122.5,42.56,-211.28,-494.0
348464.4776,110.959,90.707,1003.328,385.0,3290.0,-682.5,51.68,-212.8,-494.0
348464.5276,101.26,94.489,1006.073,-752.5,3316.25,-647.5,47.12,-206.72,-486.4
348464.5776,107.909,83.387,1006.073,-1347.5,2800.0,-560.0,51.68,-212.8,-490.96
348464.6276,105.957,76.677,1009.916,-682.5,3167.5,-227.5,47.12,-197.6,-501.6
348464.6776,106.994,85.095,1008.391,367.5,2992.5,-393.75,48.64,-205.2,-501.6
348464.7276,113.826,89.853,1007.72,1041.25,2843.75,-831.25,53.2,-199.12,-500.08
348464.7776,99.186,94.184,1004.67,315.0,3228.75,-1321.25,48.64,-206.72,-486.4
348464.8276,107.909,93.452,1003.694,-971.25,2563.75,-1137.5,50.16,-209.76,-495.52
348464.8776,109.556,87.901,1005.097,-822.5,3298.75,-323.75,57.76,-202.16,-497.04
348464.9276,104.066,86.864,1010.221,-568.75,3237.5,-463.75,56.24,-206.72,-497.04
348464.9776,105.835,85.4,1007.171,-323.75,2931.25,-1356.25,45.6,-209.76,-490.96
348465.0276,106.384,86.498,1002.657,-201.25,3123.75,-1338.75,44.08,-217.36,-490.96
348465.0776,100.467,85.217,1009.184,-516.25,2791.25,-516.25,48.64,-212.8,-492.48
348465.1276,103.761,78.568,1009.367,-17.5,2362.5,-210.0,50.16,-212.8,-490.96
348465.1776,109.007,82.533,1005.89,35.0,2563.75,-227.5,48.64,-206.72,-506.16
348465.2276,112.301,86.437,1005.585,227.5,2940.0,-691.25,39.52,-218.88,-497.04
348465.2776,103.639,91.927,1009.245,-507.5,3018.75,-1041.25,51.68,-212.8,-480.32
348465.3276,108.763,79.727,1003.206,-638.75,2712.5,-525.0,45.6,-208.24,-487.92
348465.3776,107.665,82.35,1006.561,-262.5,3027.5,-367.5,56.24,-203.68,-497.04
348465.4276,107.36,82.838,1007.476,-26.25,2835.0,-822.5,53.2,-206.72,-497.04
348465.4776,114.131,82.96,1011.685,341.25,2817.5,-1058.75,44.08,-200.64,-477.28
348465.5276,100.65,91.439,1009.489,350.0,3403.75,-1461.25,48.64,-194.56,-504.64
348465.5776,106.628,86.254,1004.853,-673.75,2467.5,-953.75,45.6,-197.6,-490.96
348465.6276,112.911,85.339,1006.683,-148.75,2992.5,-26.25,56.24,-205.2,-477.28
348465.6776,108.092,88.572,1006.683,-717.5,3526.25,-105.0,45.6,-212.8,-494.0
348465.7276,102.419,82.167,1008.94,-752.5,2922.5,-1575.0,44.08,-212.8,-484.88
348465.7776,110.288,82.106,1005.219,-481.25,2931.25,-1478.75,50.16,-200.64,-494.0
348465.8276,104.493,82.594,1006.134,-612.5,2966.25,-857.5,42.56,-203.68,-497.04
348465.8776,102.663,81.557,1007.781,-140.0,2537.5,-805.0,56.24,-209.76,-494.0
348465.9276,109.861,78.812,1010.16,-148.75,2581.25,-96.25,66.88,-202.16,-487.92
348465.9776,111.508,81.069,1007.415,1058.75,3167.5,-271.25,34.96,-223.44,-472.72
348466.0276,103.273,91.561,1007.537,-420.0,3176.25,-1146.25,53.2,-214.32,-501.6
348466.0776,100.162,83.082,1005.341,-402.5,2887.5,-1426.25,50.16,-211.28,-494.0
348466.1276,109.739,81.435,1007.964,-446.25,3001.25,-507.5,62.32,-205.2,-506.16
348466.1776,106.872,81.252,1008.269,131.25,3053.75,-393.75,59.28,-218.88,-494.0
348466.2276,109.068,85.827,1009.184,297.5,2773.75,-735.0,31.92,-202.16,-483.36
348466.2776,102.358,88.633,1006.195,-87.5,3535.0,-953.75,53.2,-211.28,-487.92
348466.3276,99.674,87.047,1009.123,-612.5,2432.5,-1032.5,62.32,-212.8,-474.24
348466.3776,108.946,82.533,1005.707,-402.5,2905.0,-341.25,51.68,-215.84,-501.6
348466.4276,108.397,86.254,1007.171,-656.25,3290.0,-201.25,62.32,-199.12,-494.0
348466.4776,104.92,81.313,1006.744,-988.75,3298.75,-813.75,38.0,-205.2,-481.84
348466.5276,106.323,77.592,1008.33,-498.75,2983.75,-1093.75,45.6,-211.28,-495.52
348466.5776,104.493,76.982,1007.415,-568.75,2817.5,-656.25,48.64,-208.24,-497.04
348466.6276,106.872,76.433,1004.609,87.5,2633.75,-577.5,57.76,-200.64,-490.96
348466.6776,111.447,78.69,1005.463,516.25,2983.75,-253.75,60.8,-206.72,-481.84
348466.7276,109.434,82.228,1007.354,1225.0,3561.25,-971.25,45.6,-197.6,-475.76
348466.7776,103.761,83.753,1003.816,-411.25,3062.5,-1426.25,47.12,-211.28,-503.12
348466.8276,104.371,80.886,1004.853,-455.0,2966.25,-1058.75,68.4,-211.28,-492.48
348466.8776,105.652,75.823,1009.123,140.0,2800.0,-280.0,47.12,-211.28,-475.76
348466.9276,103.151,82.899,1009.733,735.0,2563.75,-665.0,42.56,-211.28,-495.52
348466.9776,111.447,83.143,1002.962,1330.0,2730.0,-516.25,44.08,-209.76,-483.36
348467.0276,102.297,91.622,1006.744,-105.0,3403.75,-376.25,45.6,-200.64,-480.32
348467.0776,100.04,86.864,1008.025,-560.0,2458.75,-927.5,45.6,-218.88,-495.52
348467.1276,109.007,82.655,1006.805,-472.5,2913.75,-428.75,47.12,-203.68,-497.04
348467.1776,105.957,79.178,1007.781,201.25,2957.5,-227.5,48.64,-197.6,-475.76
348467.2276,106.933,85.156,1006.866,-61.25,2975.0,-726.25,60.8,-202.16,-474.24
348467.2776,104.249,79.605,1005.28,-385.0,3132.5,-857.5,57.76,-206.72,-494.0
348467.3276,101.992,79.544,1008.086,-201.25,2861.25,-761.25,51.68,-206.72,-495.52
348467.3776,105.286,78.934,1007.476,323.75,2345.0,-393.75,65.36,-202.16,-492.48
348467.4276,109.129,81.435,1006.866,78.75,2371.25,-52.5,56.24,-199.12,-489.44
348467.4776,113.155,77.47,1008.208,691.25,3587.5,-358.75,57.76,-199.12,-497.04
348467.5276,103.273,89.121,1008.269,-113.75,3202.5,-1391.25,50.16,-203.68,-503.12
348467.5778,102.663,81.679,1005.402,-551.25,2957.5,-1408.75,42.56,-208.24,-481.84
348467.6276,102.297,74.847,1006.073,-175.0,2738.75,-271.25,53.2,-199.12,-484.88
348467.6777,107.909,78.568,1007.964,682.5,2511.25,-78.75,56.24,-209.76,-494.0
348467.7276,109.983,85.034,1009.428,227.5,2878.75,-533.75,59.28,-214.32,-478.8
348467.7776,103.029,84.302,1006.927,-455.0,3307.5,-892.5,59.28,-199.12,-484.88
348467.8276,100.467,82.96,1006.988,-455.0,2660.0,-945.0,38.0,-208.24,-498.56
348467.8776,109.922,79.727,1005.341,-297.5,2712.5,-306.25,51.68,-203.68,-495.52
348467.9276,111.386,82.106,1008.574,-332.5,3386.25,61.25,56.24,-202.16,-492.48
348467.9776,105.225,81.313,1011.319,-595.0,2975.0,-1330.0,44.08,-203.68,-497.04
348468.0276,105.286,80.52,1006.012,-341.25,2852.5,-1417.5,44.08,-191.52,-494.0
348468.0776,105.286,79.361,1006.378,-735.0,2913.75,-665.0,53.2,-200.64,-497.04
348468.1276,105.103,75.884,1008.696,-306.25,2502.5,-367.5,51.68,-199.12,-492.48
348468.1776,109.312,75.579,1008.086,-131.25,2476.25,-603.75,51.68,-206.72,-495.52
348468.2276,108.153,77.775,1007.293,-122.5,2870.0,-630.0,44.08,-203.68,-495.52
348468.2776,112.179,78.568,1008.33,1373.75,3298.75,-1058.75,66.88,-202.16,-487.92
348468.3276,105.713,92.293,1006.256,393.75,3990.0,-1181.25,56.24,-209.76,-483.36
348468.3776,99.674,82.655,1008.086,-1041.25,2782.5,-1408.75,47.12,-194.56,-498.56
348468.4276,102.358,75.579,1008.574,-787.5,2738.75,-936.25,56.24,-191.52,-497.04
348468.4776,108.214,77.165,1004.853,113.75,3088.75,-35.0,33.44,-214.32,-492.48
348468.5276,111.02,78.873,1007.293,-87.5,2677.5,-962.5,65.36,-212.8,-494.0
348468.5776,108.153,81.618,1007.171,-210.0,3710.0,-945.0,56.24,-208.24,-489.44
348468.6276,98.088,81.069,1006.683,-568.75,2686.25,-971.25,53.2,-194.56,-501.6
348468.6776,105.591,78.08,1009.428,-770.0,2476.25,-1050.0,47.12,-199.12,-483.36
348468.7276,105.774,79.605,1009.306,-420.0,3263.75,-288.75,48.64,-202.16,-477.28
348468.7776,102.602,77.104,1010.221,-988.75,3412.5,-717.5,50.16,-199.12,-498.56
348468.8276,102.724,74.481,1008.879,-280.0,2633.75,-1067.5,57.76,-200.64,-497.04
348468.8776,105.103,75.213,1009.062,-437.5,2616.25,-455.0,50.16,-209.76,-494.0
348468.9276,104.554,72.407,1009.672,-376.25,2616.25,-341.25,33.44,-205.2,-478.8
348468.9776,110.471,71.614,1009.55,105.0,3001.25,-472.5,39.52,-200.64,-487.92
348469.0276,105.042,72.956,1007.598,17.5,3053.75,-875.0,56.24,-203.68,-492.48
348469.0776,101.138,74.481,1009.428,61.25,2572.5,-1592.5,57.76,-202.16,-489.44
348469.1276,109.495,74.42,1007.049,717.5,3018.75,-612.5,45.6,-211.28,-501.6
348469.1776,108.702,77.653,1007.293,1163.75,3508.75,-411.25,39.52,-193.04,-489.44
348469.2276,99.552,83.082,1009.001,-673.75,2931.25,-1155.0,38.0,-202.16,-480.32
348469.2776,101.626,74.969,1007.781,-848.75,2616.25,-1198.75,42.56,-197.6,-498.56
348469.3276,102.358,66.551,1008.086,-1032.5,2887.5,140.0,60.8,-206.72,-494.0
348469.3776,105.469,72.407,1011.014,787.5,2660.0,-971.25,60.8,-209.76,-483.36
348469.4276,109.617,77.409,1005.524,980.0,2940.0,-1513.75,50.16,-211.28,-487.92
348469.4776,103.456,84.485,1010.099,131.25,3605.0,-1067.5,41.04,-197.6,-487.92
348469.5276,101.26,83.692,1008.208,-717.5,2852.5,-691.25,50.16,-197.6,-490.96
348469.5776,104.615,75.945,1008.391,-306.25,2616.25,-70.0,71.44,-209.76,-480.32
348469.6276,110.349,74.176,1006.195,-218.75,3412.5,323.75,44.08,-203.68,-492.48
348469.6776,104.859,74.664,1004.548,-183.75,3053.75,-420.0,50.16,-194.56,-494.0
348469.7276,100.223,75.823,1007.171,-35.0,2887.5,-1216.25,56.24,-203.68,-478.8
348469.7776,105.652,76.677,1005.463,-8.75,2712.5,-542.5,39.52,-203.68,-490.96
348469.8276,102.297,77.348,1009.001,-280.0,2852.5,-35.0,47.12,-203.68,-490.96
348469.8776,104.92,72.529,1007.476,-568.75,2616.25,-472.5,60.8,-206.72,-490.96
348469.9276,108.214,71.065,1007.293,-245.0,2616.25,-796.25,60.8,-197.6,-480.32
348469.9776,107.177,69.784,1009.062,455.0,3552.5,-1006.25,51.68,-188.48,-492.48
348470.0276,102.358,75.823,1008.513,971.25,3360.0,-1137.5,36.48,-200.64,-503.12
348470.0776,101.992,78.934,1008.086,-708.75,3062.5,-332.5,44.08,-202.16,-492.48
348470.1276,100.65,70.943,1006.256,-883.75,3132.5,-490.0,53.2,-208.24,-489.44
348470.1776,104.371,63.867,1007.354,498.75,2896.25,-402.5,53.2,-203.68,-490.96
348470.2276,104.31,77.165,1007.537,1347.5,2686.25,236.25,53.2,-208.24,-497.04
348470.2776,114.802,82.106,1007.476,971.25,4042.5,-428.75,51.68,-197.6,-494.0
348470.3276,99.064,80.52,1005.036,140.0,2931.25,-1461.25,53.2,-205.2,-487.92
348470.3776,105.469,78.568,1004.67,-52.5,3062.5,-1417.5,47.12,-208.24,-500.08
348470.4276,101.26,80.154,1006.378,-332.5,3981.25,-358.75,71.44,-209.76,-494.0
348470.4776,97.6,72.651,1008.574,-743.75,3176.25,-700.0,51.68,-202.16,-483.36
348470.5276,99.308,73.749,1007.537,-437.5,2826.25,-1058.75,34.96,-206.72,-490.96
348470.5776,102.236,70.638,1007.171,-201.25,3281.25,-542.5,57.76,-202.16,-487.92
348470.6276,98.515,74.786,1011.746,-306.25,3368.75,-157.5,50.16,-199.12,-481.84
348470.6776,100.65,68.869,1008.574,105.0,2467.5,-568.75,57.76,-203.68,-483.36
348470.7276,104.676,68.442,1008.574,341.25,3045.0,-586.25,33.44,-200.64,-490.96
348470.7776,100.955,75.396,1011.441,542.5,3885.0,-297.5,69.92,-206.72,-487.92
348470.8276,95.587,78.751,1010.648,-595.0,3657.5,17.5,56.24,-206.72,-490.96
348470.8776,87.108,68.991,1006.195,-656.25,2388.75,-533.75,51.68,-206.72,-494.0
348470.9278,104.432,67.527,1006.317,61.25,1540.0,-533.75,57.76,-205.2,-498.56
348470.9776,105.469,79.239,1009.977,490.0,2808.75,61.25,50.16,-197.6,-483.36
348471.0277,104.066,76.555,1007.354,288.75,1898.75,-516.25,41.04,-202.16,-494.0
348471.0776,100.162,79.666,1010.587,245.0,2572.5,-848.75,65.36,-202.16,-494.0
348471.1276,104.981,81.618,1006.134,-288.75,2056.25,-586.25,68.4,-200.64,-475.76
348471.1776,110.471,73.749,1006.439,70.0,2642.5,-446.25,56.24,-209.76,-490.96
348471.2276,106.933,81.008,1007.049,-402.5,2905.0,-560.0,39.52,-200.64,-480.32
348471.2776,102.48,77.836,1006.866,-910.0,2887.5,-1006.25,50.16,-212.8,-489.44
348471.3276,107.299,75.762,1003.572,-936.25,2651.25,-1128.75,65.36,-205.2,-492.48
348471.3776,105.103,72.163,1007.537,-1268.75,2677.5,-848.75,41.04,-202.16,-494.0
348471.4276,104.066,63.806,1011.38,-936.25,2835.0,-778.75,50.16,-193.04,-494.0
348471.4776,104.31,66.307,1009.855,-428.75,2625.0,-656.25,57.76,-199.12,-490.96
348471.5276,111.02,69.418,1009.062,332.5,3097.5,-665.0,38.0,-209.76,-489.44
348471.5776,96.99,73.627,1006.134,105.0,3325.0,-1058.75,50.16,-196.08,-492.48
348471.6276,99.064,70.211,1008.513,210.0,2003.75,-1190.0,59.28,-208.24,-486.4
348471.6776,104.493,68.625,1004.853,-638.75,2791.25,-866.25,56.24,-203.68,-481.84
348471.7276,104.554,66.734,1008.086,105.0,2108.75,-1076.25,42.56,-200.64,-487.92
348471.7776,112.911,71.614,1007.903,297.5,2030.0,-980.0,38.0,-197.6,-504.64
348471.8276,102.785,79.91,1012.6,-481.25,3876.25,-560.0,50.16,-206.72,-490.96
348471.8776,97.295,72.651,1006.561,-901.25,2441.25,-1137.5,45.6,-193.04,-483.36
348471.9276,112.85,71.187,1006.927,-656.25,2826.25,-971.25,36.48,-193.04,-490.96
348471.9776,112.484,69.784,1006.622,-813.75,3456.25,0.0,48.64,-199.12,-477.28
348472.0276,98.942,67.283,1010.282,-700.0,3150.0,-980.0,44.08,-202.16,-490.96
348472.0776,106.018,67.649,1006.195,-306.25,2677.5,-1338.75,41.04,-206.72,-494.0
348472.1276,106.689,69.967,1006.073,-428.75,2870.0,-918.75,39.52,-190.0,-492.48
348472.1776,106.506,63.257,1008.696,-560.0,2292.5,-770.0,63.84,-206.72,-489.44
348472.2276,107.97,63.257,1008.757,-78.75,2765.0,-603.75,53.2,-194.56,-474.24
348472.2776,110.593,62.525,1009.977,481.25,3097.5,-656.25,50.16,-196.08,-497.04
348472.3276,105.164,74.298,1006.927,236.25,3797.5,-1172.5,48.64,-206.72,-495.52
348472.3776,101.321,67.1,1005.463,-218.75,3080.0,-1443.75,54.72,-199.12,-495.52
348472.4276,104.981,67.649,1009.184,-26.25,2808.75,-1321.25,41.04,-203.68,-475.76
348472.4776,107.238,66.429,1007.11,131.25,2616.25,-498.75,47.12,-194.56,-486.4
348472.5276,105.53,68.137,1010.404,560.0,2458.75,-498.75,48.64,-197.6,-494.0
348472.5776,107.787,74.481,1008.33,385.0,3202.5,-682.5,47.12,-208.24,-487.92
348472.6276,102.968,72.346,1004.67,-157.5,3176.25,-595.0,44.08,-203.68,-495.52
348472.6776,102.358,69.052,1007.11,-288.75,2791.25,-1093.75,48.64,-203.68,-494.0
348472.7276,108.214,69.052,1006.622,35.0,2791.25,-665.0,51.68,-200.64,-481.84
348472.7776,107.116,67.649,1007.842,-306.25,3622.5,-603.75,47.12,-205.2,-487.92
348472.8276,101.382,68.93,1008.94,-735.0,3018.75,-1365.0,45.6,-200.64,-490.96
348472.8776,105.469,62.952,1005.829,-455.0,3010.0,-813.75,47.12,-190.0,-492.48
348472.9276,105.347,62.098,1009.672,-192.5,3062.5,-306.25,56.24,-206.72,-481.84
348472.9776,106.384,59.536,1010.709,533.75,2695.0,-525.0,57.76,-196.08,-495.52
348473.0276,108.397,65.087,1011.441,1041.25,2616.25,-157.5,41.04,-203.68,-494.0
348473.0776,110.776,69.113,1006.683,1356.25,3386.25,-551.25,59.28,-206.72,-501.6
348473.1276,100.772,77.897,1007.171,157.5,3456.25,-1531.25,51.68,-203.68,-477.28
348473.1776,104.92,71.309,1004.853,-402.5,3036.25,-1365.0,50.16,-208.24,-498.56
348473.2276,100.711,66.551,1006.622,-175.0,2730.0,-708.75,60.8,-202.16,-489.44
348473.2776,104.92,69.113,1011.197,-288.75,2660.0,-332.5,42.56,-206.72,-486.4
348473.3276,106.201,67.1,1009.977,262.5,2703.75,-568.75,56.24,-197.6,-495.52
348473.3776,106.628,75.274,1008.574,131.25,3220.0,-621.25,51.68,-206.72,-495.52
348473.4276,101.931,70.272,1005.768,-280.0,2730.0,-1347.5,59.28,-202.16,-486.4
348473.4776,105.225,70.272,1010.831,-385.0,2345.0,-1111.25,50.16,-205.2,-483.36
348473.5276,108.824,68.564,1006.622,96.25,2922.5,-236.25,53.2,-193.04,-501.6
348473.5776,105.103,72.346,1005.829,-218.75,2896.25,-568.75,48.64,-199.12,-503.12
348473.6276,108.458,66.124,1010.343,-656.25,2896.25,-857.5,53.2,-203.68,-481.84
348473.6776,103.456,67.283,1009.611,-87.5,2563.75,-560.0,50.16,-202.16,-489.44
348473.7276,107.787,65.392,1009.489,43.75,2520.0,-455.0,34.96,-191.52,-500.08
348473.7776,107.36,68.32,1010.709,78.75,2870.0,-612.5,56.24,-193.04,-500.08
348473.8276,107.482,66.917,1007.964,227.5,2703.75,-883.75,50.16,-188.48,-489.44
348473.8776,108.458,67.1,1007.964,796.25,3246.25,-901.25,50.16,-206.72,-495.52
348473.9276,101.748,77.958,1007.537,227.5,3473.75,-901.25,47.12,-208.24,-497.04
348473.9776,99.43,73.688,1007.232,-428.75,2887.5,-1356.25,41.04,-206.72,-480.32
348474.0276,105.347,66.795,1009.489,-1242.5,2835.0,-533.75,50.16,-194.56,-489.44
348474.0776,109.983,60.756,1009.916,-498.75,2913.75,43.75,44.08,-193.04,-500.08
348474.1276,106.872,67.1,1010.038,-288.75,2625.0,-630.0,42.56,-190.0,-486.4
348474.1776,112.789,71.126,1009.733,-148.75,3605.0,-953.75,71.44,-199.12,-487.92
348474.2276,94.794,68.625,1011.746,-192.5,2231.25,-2808.75,48.64,-202.16,-480.32
348474.2778,118.096,67.771,1005.402,-691.25,2712.5,-1155.0,47.12,-196.08,-507.68
348474.3276,111.386,63.989,1009.184,-411.25,4121.25,1260.0,62.32,-196.08,-500.08
348474.3777,98.82,67.283,1010.343,-656.25,3176.25,621.25,50.16,-200.64,-495.52
348474.4276,103.578,61.854,1009.001,-586.25,2738.75,-113.75,44.08,-199.12,-489.44
348474.4776,102.907,61.61,1006.073,-52.5,2800.0,-446.25,41.04,-199.12,-475.76
348474.5276,105.347,64.355,1009.123,-638.75,2423.75,-656.25,56.24,-200.64,-484.88
348474.5777,110.837,56.669,1009.367,-96.25,2747.5,-192.5,45.6,-193.04,-490.96
348474.6276,102.785,60.878,1010.465,595.0,2555.0,-840.0,44.08,-197.6,-501.6
348474.6776,111.447,63.867,1007.781,306.25,2353.75,-1155.0,44.08,-205.2,-497.04
348474.7276,113.582,68.564,1007.049,1146.25,3718.75,-691.25,44.08,-211.28,-490.96
348474.7776,97.722,75.762,1008.33,-516.25,3281.25,-1321.25,59.28,-193.04,-480.32
348474.8276,101.687,65.514,1008.635,-1163.75,2546.25,-1076.25,66.88,-200.64,-497.04
348474.8776,108.092,60.451,1007.476,-52.5,2747.5,-210.0,57.76,-205.2,-489.44
348474.9276,110.288,64.111,1008.269,140.0,3027.5,-70.0,44.08,-209.76,-489.44
348474.9776,109.251,67.771,1010.587,560.0,2861.25,-1137.5,45.6,-191.52,-471.2
348475.0276,104.371,68.747,1012.478,-183.75,3701.25,-1050.0,50.16,-200.64,-498.56
348475.0776,101.016,72.712,1007.842,-148.75,2940.0,-1251.25,51.68,-193.04,-484.88
348475.1276,108.214,68.137,1006.805,-647.5,2677.5,-726.25,45.6,-196.08,-483.36
348475.1776,105.286,64.965,1007.354,-490.0,3088.75,0.0,39.52,-208.24,-490.96
348475.2276,103.09,59.109,1011.441,-665.0,2791.25,-770.0,42.56,-190.0,-477.28
348475.2776,103.517,58.682,1007.354,-218.75,2432.5,-962.5,41.04,-190.0,-483.36
348475.3276,108.214,62.037,1008.33,-472.5,2520.0,-297.5,53.2,-203.68,-500.08
348475.3776,108.031,61.366,1009.062,43.75,2966.25,-673.75,60.8,-196.08,-494.0
348475.4276,109.007,63.867,1008.208,-498.75,2782.5,-1111.25,66.88,-199.12,-480.32
348475.4776,108.763,57.828,1009.733,218.75,2861.25,-1312.5,28.88,-215.84,-490.96
348475.5276,109.739,63.928,1007.659,358.75,3176.25,-560.0,59.28,-202.16,-489.44
348475.5776,110.959,66.673,1008.33,700.0,3255.0,-542.5,39.52,-194.56,-497.04
348475.6276,102.541,68.564,1009.672,-551.25,2703.75,-778.75,48.64,-206.72,-481.84
348475.6776,109.007,61.183,1006.866,-1102.5,2913.75,-551.25,62.32,-200.64,-477.28
348475.7276,107.177,54.229,1008.635,8.75,2922.5,-603.75,41.04,-197.6,-495.52
348475.7776,112.118,61.488,1007.842,568.75,3220.0,-796.25,42.56,-202.16,-490.96
348475.8276,111.996,64.416,1003.45,988.75,3465.0,-980.0,53.2,-197.6,-483.36
348475.8776,98.576,66.307,1012.112,-463.75,3640.0,-988.75,30.4,-196.08,-497.04
348475.9276,105.347,63.135,1009.123,-341.25,2791.25,-1155.0,39.52,-197.6,-494.0
348475.9776,107.665,61.976,1011.197,280.0,3027.5,-437.5,60.8,-200.64,-483.36
348476.0276,101.443,66.246,1007.842,402.5,3158.75,-350.0,42.56,-194.56,-489.44
348476.0776,103.7,65.575,1010.038,-131.25,2616.25,-682.5,47.12,-191.52,-498.56
348476.1276,104.188,65.88,1008.696,-245.0,2695.0,-420.0,51.68,-197.6,-497.04
348476.1776,104.737,62.891,1007.903,-665.0,2616.25,-533.75,59.28,-199.12,-481.84
348476.2276,106.567,59.841,1008.391,-175.0,2467.5,-638.75,53.2,-197.6,-497.04
348476.2776,110.532,59.231,1008.025,-26.25,2931.25,-656.25,45.6,-197.6,-504.64
348476.3276,107.116,62.22,1009.062,70.0,2432.5,-1032.5,47.12,-197.6,-490.96
348476.3776,108.275,66.917,1005.768,376.25,3106.25,-1015.0,45.6,-200.64,-494.0
348476.4276,103.7,69.052,1008.635,-927.5,3132.5,-700.0,36.48,-191.52,-500.08
348476.4776,107.543,57.889,1007.11,-1006.25,2791.25,-577.5,44.08,-193.04,-484.88
348476.5276,103.273,58.011,1007.476,-988.75,2493.75,-805.0,51.68,-199.12,-481.84
348476.5776,110.776,56.364,1010.099,-122.5,2966.25,-612.5,42.56,-194.56,-504.64
348476.6276,111.325,62.647,1008.147,1163.75,3106.25,-796.25,44.08,-191.52,-497.04
348476.6776,104.554,67.222,1007.171,148.75,3237.5,-1163.75,57.76,-202.16,-498.56
348476.7276,106.75,61.122,1006.744,-595.0,2607.5,-875.0,44.08,-194.56,-480.32
348476.7776,107.665,58.865,1007.781,35.0,3255.0,-577.5,48.64,-197.6,-498.56
348476.8276,107.726,57.096,1009.123,-227.5,3228.75,-507.5,51.68,-191.52,-492.48
348476.8776,101.138,60.634,1006.561,-166.25,2642.5,-1128.75,51.68,-203.68,-492.48
348476.9276,106.201,61.488,1005.89,-253.75,2712.5,-945.0,51.68,-191.52,-495.52
348476.9776,105.896,56.852,1007.171,-726.25,2773.75,-420.0,38.0,-194.56,-478.8
348477.0276,104.005,55.449,1009.916,-577.5,2738.75,-533.75,47.12,-203.68,-484.88
348477.0776,110.044,51.057,1009.306,262.5,2301.25,-848.75,50.16,-197.6,-483.36
348477.1276,110.593,53.253,1008.818,638.75,2913.75,-787.5,47.12,-190.0,-490.96
348477.1776,110.349,64.355,1005.89,1295.0,3255.0,-918.75,53.2,-194.56,-498.56
348477.2276,101.87,65.026,1010.709,-962.5,2948.75,-665.0,45.6,-194.56,-494.0
348477.2776,108.092,53.375,1006.073,-936.25,2896.25,-385.0,42.56,-200.64,-483.36
348477.3276,103.029,52.582,1010.77,-17.5,2590.0,-682.5,50.16,-200.64,-489.44
348477.3776,107.665,58.011,1008.879,770.0,2660.0,-1076.25,56.24,-199.12,-487.92
348477.4276,115.595,61.976,1008.757,533.75,3053.75,-752.5,53.2,-200.64,-486.4
348477.4776,97.356,59.475,1008.574,-253.75,2931.25,-953.75,51.68,-196.08,-497.04
348477.5276,108.336,60.573,1007.598,-568.75,2388.75,-988.75,51.68,-196.08,-506.16
348477.5776,109.495,58.56,1007.049,-192.5,3018.75,-201.25,50.16,-197.6,-492.48
348477.6278,111.935,61.244,1008.452,-735.0,3211.25,-463.75,41.04,-197.6,-483.36
348477.6776,103.578,53.863,1009.55,-848.75,2940.0,-1338.75,45.6,-205.2,-487.92
348477.7277,105.53,53.68,1007.903,-595.0,2756.25,-577.5,48.64,-193.04,-492.48
348477.7776,105.286,54.229,1007.781,-726.25,2843.75,-26.25,53.2,-191.52,-487.92
348477.8277,104.859,50.508,1009.855,-490.0,2563.75,-437.5,39.52,-193.04,-494.0
348477.8776,111.203,51.423,1007.842,-87.5,2310.0,-682.5,44.08,-205.2,-494.0
348477.9276,110.776,48.983,1007.476,1067.5,2642.5,-682.5,66.88,-194.56,-475.76
348477.9776,110.349,63.867,1006.622,1671.25,3298.75,-1076.25,38.0,-193.04,-463.6
348478.0276,102.602,65.209,1006.988,17.5,2572.5,-761.25,31.92,-203.68,-498.56
348478.0776,112.606,57.584,1005.097,-918.75,3228.75,-656.25,56.24,-188.48,-494.0
348478.1276,109.495,49.41,1008.574,-892.5,3508.75,-638.75,65.36,-212.8,-492.48
348478.1776,100.223,52.338,1013.515,-350.0,3132.5,-1330.0,44.08,-203.68,-481.84
348478.2276,108.275,54.351,1010.038,533.75,3526.25,-953.75,57.76,-193.04,-492.48
348478.2776,98.21,58.804,1009.672,420.0,3036.25,-717.5,60.8,-186.96,-489.44
348478.3276,107.36,57.828,1009.855,148.75,2432.5,-805.0,56.24,-206.72,-483.36
348478.3776,112.789,58.865,1008.94,525.0,2476.25,-647.5,45.6,-205.2,-497.04
348478.4276,109.922,61.793,1007.476,26.25,2940.0,-630.0,45.6,-193.04,-501.6
348478.4776,105.591,60.085,1008.391,-656.25,2870.0,-953.75,53.2,-202.16,-489.44
348478.5276,107.238,57.95,1006.195,-411.25,2957.5,-726.25,48.64,-208.24,-494.0
348478.5776,109.373,53.863,1009.245,-822.5,3088.75,-367.5,45.6,-186.96,-504.64
348478.6276,105.835,49.166,1009.672,-245.0,2940.0,-542.5,59.28,-196.08,-506.16
348478.6776,111.02,52.094,1009.977,-61.25,2703.75,-927.5,56.24,-202.16,-483.36
348478.7276,114.131,49.715,1010.343,245.0,2905.0,-647.5,44.08,-196.08,-489.44
348478.7776,111.142,56.181,1005.89,1365.0,3657.5,-1207.5,38.0,-200.64,-494.0
348478.8276,103.761,62.586,1006.683,-376.25,2800.0,-875.0,57.76,-200.64,-489.44
348478.8776,107.36,54.351,1006.927,-332.5,3001.25,-621.25,57.76,-188.48,-480.32
348478.9276,106.384,49.654,1012.6,-253.75,2765.0,-393.75,39.52,-197.6,-486.4
348478.9776,109.007,54.473,1007.659,428.75,2747.5,-866.25,48.64,-200.64,-492.48
348479.0276,112.85,55.815,1006.622,1225.0,3220.0,-656.25,48.64,-190.0,-477.28
348479.0776,105.042,64.355,1007.964,113.75,3150.0,-761.25,47.12,-191.52,-492.48
348479.1276,105.896,58.926,1007.903,-210.0,2633.75,-883.75,47.12,-194.56,-497.04
348479.1776,111.325,61.366,1004.975,-332.5,2791.25,-673.75,47.12,-196.08,-494.0
348479.2276,109.556,61.732,1007.232,-665.0,3010.0,-262.5,47.12,-190.0,-483.36
348479.2776,105.835,56.791,1010.709,-761.25,3097.5,-901.25,42.56,-199.12,-492.48
348479.3276,108.214,53.314,1010.343,-778.75,2668.75,-700.0,62.32,-197.6,-487.92
348479.3776,110.288,47.092,1007.11,-306.25,2852.5,-166.25,59.28,-197.6,-490.96
348479.4276,103.822,52.887,1009.916,175.0,2730.0,-595.0,39.52,-199.12,-483.36
348479.4776,111.63,52.826,1007.11,61.25,2310.0,-813.75,38.0,-185.44,-487.92
348479.5276,116.632,54.046,1007.476,-61.25,2835.0,-516.25,47.12,-197.6,-486.4
348479.5776,111.02,54.717,1009.245,122.5,3666.25,-945.0,60.8,-193.04,-475.76
348479.6276,104.188,55.632,1009.611,-288.75,3045.0,-1216.25,57.76,-200.64,-490.96
348479.6776,111.874,50.752,1007.537,-236.25,3053.75,-848.75,48.64,-197.6,-489.44
348479.7276,106.018,48.678,1010.465,280.0,3167.5,-437.5,50.16,-186.96,-481.84
348479.7776,106.262,56.242,1011.38,166.25,2835.0,-1015.0,36.48,-194.56,-490.96
348479.8276,111.874,54.595,1006.256,726.25,2695.0,-953.75,41.04,-196.08,-503.12
348479.8776,103.212,62.708,1007.842,-297.5,3115.0,-735.0,51.68,-191.52,-484.88
348479.9276,107.299,51.606,1008.513,-665.0,2441.25,-726.25,48.64,-206.72,-475.76
348479.9776,112.972,50.996,1009.855,-148.75,2913.75,-192.5,45.6,-193.04,-495.52
348480.0276,108.763,55.449,1011.075,-122.5,3097.5,-656.25,41.04,-186.96,-498.56
348480.0776,106.689,54.229,1007.293,-131.25,3167.5,-1242.5,47.12,-200.64,-494.0
348480.1276,103.883,51.484,1007.842,-113.75,2747.5,-945.0,51.68,-202.16,-481.84
348480.1776,110.227,51.972,1009.794,-227.5,2301.25,-35.0,39.52,-206.72,-489.44
348480.2276,105.53,47.763,1009.977,-52.5,2607.5,-87.5,45.6,-197.6,-490.96
348480.2776,113.277,50.752,1008.757,437.5,2327.5,-463.75,47.12,-200.64,-490.96
348480.3276,115.778,53.07,1008.33,1093.75,2983.75,-420.0,42.56,-194.56,-489.44
348480.3776,110.41,66.673,1008.391,516.25,3780.0,-910.0,45.6,-194.56,-498.56
348480.4276,106.201,60.756,1005.829,-332.5,2695.0,-1443.75,50.16,-206.72,-487.92
348480.4776,109.129,53.863,1009.184,-665.0,2852.5,-787.5,50.16,-191.52,-483.36
348480.5276,113.155,51.179,1007.781,-140.0,2975.0,-8.75,53.2,-197.6,-492.48
348480.5776,107.726,52.887,1009.672,455.0,2773.75,-402.5,38.0,-186.96,-495.52
348480.6276,112.423,62.708,1008.574,43.75,3193.75,-813.75,47.12,-193.04,-497.04
348480.6776,102.175,55.51,1009.611,-577.5,2782.5,-1198.75,53.2,-199.12,-489.44
348480.7276,107.97,56.425,1011.319,-385.0,2327.5,-910.0,36.48,-188.48,-481.84
348480.7776,111.996,57.401,1006.378,-787.5,2983.75,446.25,57.76,-196.08,-492.48
348480.8276,106.506,48.861,1009.428,-831.25,2738.75,-271.25,65.36,-188.48,-480.32
348480.8776,113.765,50.081,1009.306,43.75,2406.25,-1268.75,39.52,-199.12,-474.24
348480.9276,113.277,54.046,1006.134,-428.75,3141.25,-612.5,38.0,-190.0,-490.96
348480.9778,109.983,53.192,1010.038,-665.0,2957.5,-708.75,63.84,-197.6,-481.84
348481.0276,114.192,51.24,1010.77,-428.75,2747.5,-1128.75,48.64,-196.08,-484.88
348481.0777,114.68,48.007,1010.099,-8.75,3211.25,-945.0,42.56,-196.08,-481.84
348481.1276,108.275,56.12,1008.757,341.25,3727.5,-1295.0,39.52,-194.56,-497.04
348481.1776,104.31,52.948,1006.195,-560.0,2791.25,-1015.0,56.24,-194.56,-494.0
348481.2276,107.909,46.787,1005.524,-411.25,2651.25,-708.75,48.64,-199.12,-477.28
348481.2776,112.545,48.251,1009.672,402.5,2686.25,-43.75,44.08,-199.12,-481.84
348481.3276,107.055,51.301,1011.38,315.0,2493.75,-603.75,62.32,-190.0,-494.0
348481.3776,112.545,58.865,1007.476,-105.0,3071.25,-1575.0,59.28,-188.48,-487.92
348481.4276,106.75,55.144,1007.903,-936.25,2555.0,-910.0,39.52,-185.44,-487.92
348481.4776,114.741,46.665,1009.001,-367.5,3683.75,-253.75,48.64,-190.0,-495.52
348481.5276,109.312,47.763,1010.892,-96.25,3500.0,-866.25,47.12,-194.56,-478.8
348481.5776,110.349,48.861,1009.123,26.25,3718.75,-1400.0,59.28,-206.72,-483.36
348481.6276,105.164,49.837,1008.574,192.5,3150.0,-1260.0,44.08,-196.08,-501.6
348481.6776,103.578,54.717,1004.304,-367.5,2817.5,-918.75,50.16,-191.52,-500.08
348481.7276,104.554,48.678,1011.136,-498.75,2371.25,-525.0,53.2,-194.56,-483.36
348481.7776,116.815,44.347,1007.903,463.75,2747.5,-96.25,44.08,-191.52,-481.84
348481.8276,113.094,51.667,1008.879,682.5,3246.25,-533.75,36.48,-194.56,-490.96
348481.8776,105.042,56.12,1004.914,-201.25,3263.75,-1260.0,60.8,-190.0,-487.92
348481.9276,106.201,49.715,1003.389,-603.75,3123.75,-1128.75,56.24,-209.76,-487.92
348481.9776,104.615,46.604,1008.879,-297.5,3290.0,-603.75,47.12,-182.4,-497.04
348482.0276,108.458,48.556,1011.746,-288.75,2975.0,-481.25,48.64,-196.08,-501.6
348482.0776,112.85,49.349,1008.208,875.0,2992.5,-866.25,59.28,-202.16,-483.36
348482.1276,101.199,53.924,1008.208,-78.75,2887.5,-1023.75,48.64,-194.56,-489.44
348482.1776,107.665,53.619,1009.245,-288.75,2537.5,-1207.5,42.56,-196.08,-507.68
348482.2276,108.458,55.266,1011.99,0.0,2528.75,-551.25,48.64,-196.08,-492.48
348482.2776,111.569,52.094,1008.94,-253.75,3368.75,-455.0,53.2,-205.2,-483.36
348482.3276,107.36,51.606,1009.794,-700.0,3570.0,-953.75,56.24,-197.6,-497.04
348482.3776,103.273,51.362,1007.659,-1006.25,3071.25,-1251.25,47.12,-199.12,-495.52
348482.4276,104.554,43.676,1009.123,-1321.25,2668.75,-831.25,63.84,-203.68,-495.52
348482.4776,111.813,43.554,1009.977,-227.5,2380.0,-227.5,57.76,-194.56,-483.36
348482.5276,111.447,48.251,1009.367,105.0,3132.5,-393.75,44.08,-202.16,-503.12
348482.5776,104.249,55.693,1010.221,-682.5,3500.0,-945.0,47.12,-186.96,-495.52
348482.6276,105.53,41.297,1007.232,-1102.5,2362.5,-892.5,45.6,-199.12,-487.92
348482.6776,109.129,35.929,1008.757,-472.5,2642.5,-393.75,47.12,-196.08,-498.56
348482.7276,107.36,40.992,1011.136,717.5,2712.5,-350.0,48.64,-197.6,-492.48
348482.7776,111.203,47.519,1007.842,218.75,2091.25,-682.5,69.92,-194.56,-495.52
348482.8276,111.63,50.752,1008.879,-113.75,3657.5,-1155.0,42.56,-188.48,-484.88
348482.8776,106.506,47.458,1009.245,-1111.25,1907.5,-1338.75,42.56,-197.6,-498.56
348482.9276,114.68,44.591,1009.001,-796.25,2467.5,-691.25,48.64,-188.48,-494.0
348482.9776,112.789,42.09,1012.417,-306.25,2852.5,-183.75,41.04,-194.56,-477.28
348483.0276,109.434,43.127,1011.075,-402.5,2686.25,-866.25,47.12,-191.52,-490.96
348483.0776,113.155,46.116,1006.256,-498.75,2992.5,-1076.25,39.52,-197.6,-489.44
348483.1276,108.885,40.809,1008.269,-1321.25,3132.5,-717.5,62.32,-193.04,-497.04
348483.1776,107.726,39.101,1008.94,-962.5,2896.25,-647.5,42.56,-185.44,-489.44
348483.2276,111.508,36.783,1009.489,393.75,2852.5,-420.0,45.6,-177.84,-487.92
348483.2776,113.887,42.395,1008.879,1076.25,3412.5,-533.75,59.28,-194.56,-487.92
348483.3276,107.421,42.944,1008.513,-691.25,3325.0,-1085.0,53.2,-197.6,-489.44
348483.3776,108.946,33.977,1009.611,-148.75,2712.5,-1365.0,45.6,-188.48,-495.52
348483.4276,108.824,31.049,1008.391,192.5,3132.5,-507.5,50.16,-202.16,-500.08
348483.4776,103.151,44.225,1011.746,560.0,2511.25,-560.0,41.04,-185.44,-474.24
348483.5276,118.096,42.639,1007.354,883.75,2966.25,-980.0,39.52,-190.0,-497.04
348483.5776,99.674,51.423,1011.136,-376.25,2992.5,-997.5,48.64,-183.92,-490.96
348483.6276,108.519,41.175,1008.086,-323.75,2563.75,-743.75,66.88,-193.04,-495.52
348483.6776,113.033,42.761,1011.38,52.5,3141.25,157.5,48.64,-177.84,-483.36
348483.7276,108.702,42.944,1010.526,-507.5,3403.75,-603.75,45.6,-188.48,-484.88
348483.7776,107.177,41.968,1009.611,-297.5,3185.0,-1382.5,48.64,-193.04,-501.6
348483.8276,109.678,38.857,1006.622,-577.5,2808.75,-638.75,65.36,-194.56,-490.96
348483.8776,104.188,37.088,1009.977,-498.75,2861.25,-367.5,45.6,-197.6,-495.52
348483.9276,109.678,37.942,1011.929,-148.75,2135.0,-778.75,47.12,-183.92,-486.4
348483.9776,116.144,35.441,1012.417,385.0,3333.75,-262.5,51.68,-191.52,-489.44
348484.0276,110.41,43.92,1009.245,665.0,3718.75,-446.25,51.68,-199.12,-486.4
348484.0776,104.798,38.918,1006.256,183.75,2870.0,-1391.25,44.08,-188.48,-503.12
348484.1276,107.848,38.491,1007.842,70.0,2922.5,-1312.5,47.12,-188.48,-486.4
348484.1776,108.275,38.43,1010.648,542.5,3106.25,-498.75,60.8,-193.04,-478.8
348484.2278,106.201,43.066,1009.001,315.0,2861.25,-691.25,51.68,-194.56,-475.76
348484.2776,109.922,47.031,1010.953,218.75,3491.25,-621.25,34.96,-194.56,-504.64
348484.3277,101.931,44.103,1008.025,-437.5,2887.5,-673.75,44.08,-190.0,-487.92
348484.3776,104.188,38.979,1009.001,-402.5,2528.75,-953.75,44.08,-190.0,-487.92
348484.4278,111.264,41.419,1010.343,201.25,3088.75,-533.75,33.44,-197.6,-495.52
348484.4776,104.432,41.663,1007.537,-525.0,3045.0,-735.0,48.64,-185.44,-494.0
348484.5276,105.408,38.857,1008.818,-332.5,2703.75,-735.0,62.32,-194.56,-481.84
348484.5776,107.665,38.003,1007.598,-420.0,2721.25,-306.25,59.28,-193.04,-498.56
348484.6276,106.445,34.648,1010.831,-376.25,2686.25,-437.5,39.52,-188.48,-492.48
348484.6776,110.105,33.977,1009.367,122.5,2476.25,-665.0,48.64,-190.0,-484.88
348484.7276,112.911,35.746,1009.855,918.75,3027.5,-376.25,48.64,-185.44,-484.88
348484.7776,111.874,43.249,1011.685,1032.5,3508.75,-927.5,53.2,-193.04,-489.44
348484.8276,100.772,47.336,1007.171,-78.75,3622.5,-1846.25,57.76,-190.0,-483.36
348484.8776,99.857,43.737,1005.951,-673.75,2843.75,-1452.5,50.16,-191.52,-477.28
348484.9276,101.931,32.696,1008.147,-586.25,2607.5,35.0,56.24,-188.48,-486.4
348484.9776,105.53,36.295,1011.746,262.5,1977.5,227.5,41.04,-183.92,-484.88
348485.0276,114.985,38.491,1010.16,910.0,2082.5,-253.75,57.76,-183.92,-484.88
348485.0776,111.569,43.188,1009.184,-315.0,3062.5,-796.25,51.68,-199.12,-481.84
348485.1276,111.569,37.942,1009.611,-621.25,2878.75,-1172.5,39.52,-206.72,-486.4
348485.1776,111.325,38.003,1008.635,227.5,3001.25,-1076.25,42.56,-186.96,-497.04
348485.2276,112.484,41.663,1008.635,-35.0,3675.0,-752.5,42.56,-191.52,-469.68
348485.2776,98.881,40.809,1009.245,-52.5,3543.75,-1575.0,54.72,-185.44,-492.48
348485.3276,105.835,40.199,1009.062,-551.25,2695.0,-1198.75,51.68,-190.0,-494.0
348485.3776,104.31,35.319,1009.611,-481.25,2852.5,-253.75,41.04,-188.48,-492.48
348485.4276,107.055,35.807,1013.149,-551.25,2362.5,-428.75,57.76,-182.4,-483.36
348485.4776,111.325,35.746,1011.014,-140.0,2108.75,-752.5,50.16,-186.96,-494.0
348485.5276,116.449,32.147,1006.622,157.5,3167.5,-778.75,50.16,-180.88,-497.04
348485.5776,107.909,44.835,1009.001,883.75,3561.25,-1627.5,56.24,-194.56,-490.96
348485.6276,105.225,45.933,1008.086,-367.5,3281.25,-1050.0,47.12,-190.0,-489.44
348485.6776,106.445,36.234,1009.123,-962.5,2940.0,-656.25,42.56,-193.04,-494.0
348485.7276,106.14,29.463,1011.136,-516.25,2922.5,-743.75,53.2,-188.48,-478.8
348485.7776,112.606,34.16,1011.685,297.5,2966.25,-341.25,71.44,-190.0,-480.32
348485.8276,110.715,40.748,1011.441,691.25,3438.75,-560.0,39.52,-191.52,-492.48
348485.8776,106.506,41.846,1008.147,446.25,2835.0,-717.5,47.12,-191.52,-495.52
348485.9276,111.63,40.26,1007.354,-271.25,2598.75,-595.0,57.76,-196.08,-489.44
348485.9776,111.935,40.443,1010.221,-148.75,3202.5,-288.75,42.56,-186.96,-478.8
348486.0276,106.201,41.419,1010.038,-542.5,3421.25,-568.75,44.08,-185.44,-486.4
348486.0776,105.774,38.552,1008.635,-787.5,2878.75,-1128.75,53.2,-196.08,-484.88
348486.1276,108.275,35.197,1011.746,-551.25,2905.0,-962.5,50.16,-191.52,-487.92
348486.1776,107.543,32.147,1013.698,-463.75,2835.0,-840.0,48.64,-180.88,-494.0
348486.2276,106.079,30.805,1009.977,-131.25,2887.5,-953.75,36.48,-188.48,-483.36
348486.2776,110.593,34.099,1010.404,542.5,2537.5,-918.75,44.08,-193.04,-486.4
348486.3276,107.848,38.613,1009.306,910.0,3841.25,-1102.5,50.16,-193.04,-477.28
348486.3776,103.761,45.567,1011.197,131.25,3683.75,-1067.5,48.64,-194.56,-500.08
348486.4276,103.822,34.038,1007.11,-306.25,2730.0,-612.5,48.64,-194.56,-494.0
